time,track_id,est_x,est_y,est_z,vel_x,vel_y,vel_z,acc_x,acc_y,acc_z,cluster_size,roi,lost,hits,true_x,true_y,true_z,true_x,true_y,true_z,true_x,true_y,true_z
1.4020000000000001,0,0.1876564621925354,0.010024070739746094,0.23845994472503662,0.0,0.0,0.0,0.0,0.0,0.0,3,0.5,0,1,0.17327660294576425,-0.004940019237014287,0.2278564528536006,1.173276602945773,-0.00494001923701262,0.22785645285360057,0.17327660294576236,-1.0049400192370166,0.22785645285360107
1.4020000000000001,1,1.18594092130661,0.016453862190246582,0.2416975498199463,0.0,0.0,0.0,0.0,0.0,0.0,7,0.5,0,1,0.17327660294576425,-0.004940019237014287,0.2278564528536006,1.173276602945773,-0.00494001923701262,0.22785645285360057,0.17327660294576236,-1.0049400192370166,0.22785645285360107
1.4020000000000001,2,0.1787208616733551,-0.9971816539764404,0.16740024089813232,0.0,0.0,0.0,0.0,0.0,0.0,1,0.5,0,1,0.17327660294576425,-0.004940019237014287,0.2278564528536006,1.173276602945773,-0.00494001923701262,0.22785645285360057,0.17327660294576236,-1.0049400192370166,0.22785645285360107
1.602,0,0.4122148262171613,0.007619885917011127,0.35640469332689595,1.12279182012313,-0.01202092411367484,0.5897237430092969,5.613959100615651,-0.060104620568374206,2.948618715046485,5,0.4705545664426178,0,2,0.4031794989270448,0.010422271018132272,0.3630792678342821,1.4031794989270512,0.010422271018136184,0.36307926783427813,0.40317949892704213,-0.9895777289818785,0.36307926783428457
1.602,1,1.4164617555159336,0.010402758069221418,0.37986771722619006,1.1526041710466175,-0.030255520605125825,0.690850837031219,5.763020855233089,-0.15127760302562915,3.4542541851560955,4,0.4705545664426178,0,2,0.4031794989270448,0.010422271018132272,0.3630792678342821,1.4031794989270512,0.010422271018136184,0.36307926783427813,0.40317949892704213,-0.9895777289818785,0.36307926783428457
1.602,2,0.1787208616733551,-0.9971816539764404,0.16740024089813232,0.0,0.0,0.0,0.0,0.0,0.0,0,0.4705545664426178,1,1,0.4031794989270448,0.010422271018132272,0.3630792678342821,1.4031794989270512,0.010422271018136184,0.36307926783427813,0.40317949892704213,-0.9895777289818785,0.36307926783428457
1.802,0,0.6208758519187513,-0.01561882761089084,0.47157820071299406,1.0433051285079498,-0.11619356763950986,0.5758675369304905,-0.397433458075901,-0.5208632176291752,-0.06928103039403168,1,0.4,0,3,0.6113566664912227,0.01347258365543674,0.4708796213414322,1.6113566664912307,0.01347258365543699,0.47087962134142786,0.6113566664912194,-0.9865274163445612,0.470879621341434
1.802,1,1.6195870934857468,0.0255926777438098,0.4812479610346516,1.0156266898490665,0.07594959837294192,0.506901219042308,-0.6848874059877553,0.5310255948903388,-0.919748089944555,2,0.4,0,3,0.6113566664912227,0.01347258365543674,0.4708796213414322,1.6113566664912307,0.01347258365543699,0.47087962134142786,0.6113566664912194,-0.9865274163445612,0.470879621341434
1.802,2,0.6297929783483027,-0.9668230194474745,0.48449071746779226,2.2553605833747383,0.15179317264482964,1.5854523828483,11.276802916873693,0.7589658632241484,7.927261914241502,1,0.7563920412061459,0,2,0.6113566664912227,0.01347258365543674,0.4708796213414322,1.6113566664912307,0.01347258365543699,0.47087962134142786,0.6113566664912194,-0.9865274163445612,0.470879621341434
2.0020000000000002,0,0.8164706958068515,0.0289236764877443,0.5506956644682173,0.9779742194405007,0.2227125204931755,0.39558731877611586,-0.3266545453372452,1.6945304406634252,-0.9014010907718726,4,0.4,0,4,0.8008188971746976,0.019465771463803877,0.55772388573161,1.8008188971747063,0.019465771463807815,0.5577238857316056,0.8008188971746947,-0.9805342285362091,0.5577238857316121
2.0020000000000002,1,1.8111518695017679,0.01504349315454867,0.5747572023152387,0.9578238800801044,-0.0527459229463056,0.4675462064029353,-0.2890140488448098,-0.6434776065962371,-0.19677506319686328,4,0.4,0,4,0.8008188971746976,0.019465771463803877,0.55772388573161,1.8008188971747063,0.019465771463807815,0.5577238857316056,0.8008188971746947,-0.9805342285362091,0.5577238857316121
2.0020000000000002,2,0.7705559398512931,-0.9624072382044631,0.5921949303267268,0.7038148075149516,0.022078906215057238,0.5385210642946723,-7.757728879298926,-0.6485713321488614,-5.234656592768134,2,0.4,0,3,0.8008188971746976,0.019465771463803877,0.55772388573161,1.8008188971747063,0.019465771463807815,0.5577238857316056,0.8008188971746947,-0.9805342285362091,0.5577238857316121
2.202,0,0.9842813485240675,0.051335335378213554,0.6287599521484433,0.8390532635860807,0.11205829445234643,0.39032143840113065,-0.6946047792721008,-0.5532711302041461,-0.026329401874926085,2,0.4,0,5,0.965030535195554,0.02904721547477321,0.6308682409577943,1.965030535195563,0.029047215474776105,0.6308682409577913,0.9650305351955519,-0.9709527845252358,0.6308682409577965
2.202,1,1.958560820688356,0.015245749376189277,0.6652000057292119,0.7370447559329417,0.001011281108203034,0.4522140170698662,-1.103895620735815,0.2687860202725435,-0.07666094666534572,4,0.4,0,5,0.965030535195554,0.02904721547477321,0.6308682409577943,1.965030535195563,0.029047215474776105,0.6308682409577913,0.9650305351955519,-0.9709527845252358,0.6308682409577965
2.202,2,0.9654340287375553,-0.9771388225059328,0.6295397828438758,0.9743904444313122,-0.07365792150734861,0.18672426258574545,1.3528781845818045,-0.4786841386120299,-1.7589840085446364,2,0.4,0,4,0.965030535195554,0.02904721547477321,0.6308682409577943,1.965030535195563,0.029047215474776105,0.6308682409577913,0.9650305351955519,-0.9709527845252358,0.6308682409577965
2.403,0,1.1151737562125106,0.03848618077604238,0.7209387587901542,0.6512060084002144,-0.06392614229935906,0.45860102806821335,-0.9345634586361505,-0.8755444614512709,0.3396994510800133,3,0.4,0,6,1.0933123766801598,0.02868410182973642,0.7069348309767607,2.0933123766801653,0.028684101829739534,0.7069348309767588,1.0933123766801576,-0.9713158981702735,0.7069348309767626
2.403,1,2.0854508648724064,0.030109086985605105,0.7094824380937119,0.6312937521594544,0.07394695328067573,0.22031060877860673,-0.5261243968830214,0.362864040659068,-1.1537482999565143,3,0.4,0,6,1.0933123766801598,0.02868410182973642,0.7069348309767607,2.0933123766801653,0.028684101829739534,0.7069348309767588,1.0933123766801576,-0.9713158981702735,0.7069348309767626
2.403,2,1.1534951160940612,-0.9412276283917569,0.7069193108722146,0.9356273002811235,0.17866265728445702,0.3849727762603915,-0.1928514634337744,1.2553262626457988,0.9863110133066965,1,0.4,0,5,1.0933123766801598,0.02868410182973642,0.7069348309767607,2.0933123766801653,0.028684101829739534,0.7069348309767588,1.0933123766801576,-0.9713158981702735,0.7069348309767626
2.601,0,1.1964634510581251,0.033679094490252526,0.7884916623182434,0.41055401437179073,-0.024278213564595218,0.34117628044489495,-1.215414111254665,0.20024206431698913,-0.5930542809258506,5,0.4,0,7,1.1893727593448584,0.029268284320267762,0.7780415209638527,2.189372759344859,0.029268284320270642,0.7780415209638519,1.1893727593448562,-0.9707317156797413,0.7780415209638544
2.601,1,2.2052974852120553,0.04670657373074483,0.7769884511585828,0.6052859613113593,0.08382569063201882,0.34093945992359087,-0.13135247903078348,0.04989261288557118,0.6092366219443646,2,0.4,0,7,1.1893727593448584,0.029268284320267762,0.7780415209638527,2.189372759344859,0.029268284320270642,0.7780415209638519,1.1893727593448562,-0.9707317156797413,0.7780415209638544
2.601,2,1.2602076790054924,-0.949916146085469,0.7949147953168646,0.5389523379365212,-0.043881402493495716,0.44442163860934364,-2.003408900730315,-1.1239598978684484,0.3002467795401624,2,0.4,0,6,1.1893727593448584,0.029268284320267762,0.7780415209638527,2.189372759344859,0.029268284320270642,0.7780415209638519,1.1893727593448562,-0.9707317156797413,0.7780415209638544
2.8030000000000004,0,1.2666629669706624,0.019795014882245665,0.8736089232555686,0.347522356002659,-0.06873306736637046,0.42137257889764834,-0.3120379127184732,-0.2200735336721542,0.3970113784789764,5,0.4,0,8,1.2598351450691911,0.027677512824820966,0.8383581200678671,2.2598351450691916,0.027677512824823537,0.8383581200678667,1.2598351450691891,-0.972322487175187,0.8383581200678684
2.8030000000000004,1,2.278805699683353,0.04783647215070208,0.8621817776079721,0.3639020518381047,0.005593556534441839,0.4217491408385596,-1.1949698488774954,-0.38728779256226153,0.4000479253216265,3,0.4,0,8,1.2598351450691911,0.027677512824820966,0.8383581200678671,2.2598351450691916,0.027677512824823537,0.8383581200678667,1.2598351450691891,-0.972322487175187,0.8383581200678684
2.8030000000000004,2,1.3118884216649196,-0.9816127883058869,0.8814128816128575,0.2558452606902339,-0.15691407039810812,0.42820834799996416,-1.4015201843875582,-0.5595676628941197,-0.08026381489791808,1,0.4,0,7,1.2598351450691911,0.027677512824820966,0.8383581200678671,2.2598351450691916,0.027677512824823537,0.8383581200678667,1.2598351450691891,-0.972322487175187,0.8383581200678684
3.003,0,1.31389373219888,0.02799224631116104,0.8947380964812786,0.23615382614108757,0.04098615714457693,0.10564586612855018,-0.556842649307858,0.5485961225547377,-1.5786335638454927,7,0.4,0,9,1.3113953781310246,0.025687197096263166,0.8863971226536796,2.3113848826978063,0.025687541457140656,0.8863427029982907,1.3113848826978036,-0.9743124585428689,0.8863427029982923
3.003,1,2.3425822557228106,0.0003963834055951132,0.8999962574934953,0.3188827801972898,-0.23720044372553514,0.18907239942761664,-0.22509635820407495,-1.2139700012998866,-1.1633837070547162,2,0.4,0,9,1.3113953781310246,0.025687197096263166,0.8863971226536796,2.3113848826978063,0.025687541457140656,0.8863427029982907,1.3113848826978036,-0.9743124585428689,0.8863427029982923
3.003,2,1.325062943574617,-1.0239933642102392,0.9724163879946629,-0.05375150725030997,-0.2536217193818212,0.4665956645297024,-1.1962411679879774,-0.41718839860060325,0.11578132620675,0,0.4,1,7,1.3113953781310246,0.025687197096263166,0.8863971226536796,2.3113848826978063,0.025687541457140656,0.8863427029982907,1.3113848826978036,-0.9743124585428689,0.8863427029982923
3.2020000000000004,0,1.3436591822986665,0.029074506108264675,0.9220510111961162,0.14957512612958176,0.005438491442731827,0.13725082771275154,-0.435068844278923,-0.17863148593891987,0.15881890243317248,3,0.4,0,10,1.3495333366406363,0.023498537146289345,0.9225544146615035,2.349449338947621,0.023499683077023072,0.9227483696687716,1.3494493389476163,-0.976500316922985,0.922748369668773
3.2020000000000004,1,2.3622233295272137,0.017838947014638507,0.9160470058315731,0.09869886333870755,0.08765107341227824,0.08065702682451084,-1.106451843510462,1.6324196841096124,-0.5448008673522896,2,0.4,0,10,1.3495333366406363,0.023498537146289345,0.9225544146615035,2.349449338947621,0.023499683077023072,0.9227483696687716,1.3494493389476163,-0.976500316922985,0.922748369668773
3.2020000000000004,2,1.3180440163739857,-0.941259917281883,0.9163766238498293,0.0006901846664465746,0.3609072847510393,-0.06980444335330478,0.2735763412902335,3.088085447903817,-2.695477929060334,1,0.4,0,8,1.3495333366406363,0.023498537146289345,0.9225544146615035,2.349449338947621,0.023499683077023072,0.9227483696687716,1.3494493389476163,-0.976500316922985,0.922748369668773
3.403,0,1.3814634158037498,0.053443851009184806,0.9566119988924586,0.18808076370688204,0.12124052189512526,0.17194521241961488,0.19157033620547434,0.5761295047382768,0.1726088791386239,2,0.4,0,11,1.3782915813487127,0.019727269870431136,0.9474398139474235,2.378203072402838,0.019729669341799854,0.9476541513621185,1.3782030724028325,-0.9802703306582075,0.9476541513621201
3.403,1,2.3766866494482546,0.012181807769020336,0.9693236653051874,0.07195681552756783,-0.02814497137123473,0.26505800733141555,-0.13304501398576998,-0.5760997252911103,0.9174178134671893,4,0.4,0,11,1.3782915813487127,0.019727269870431136,0.9474398139474235,2.378203072402838,0.019729669341799854,0.9476541513621185,1.3782030724028325,-0.9802703306582075,0.9476541513621201
3.403,2,1.2535935851806816,-0.922400465927014,0.9156561772445573,-0.4283054514415885,0.11686252832287536,-0.06137370024171301,-1.071209353553381,0.2291981306417608,-0.5750187937581872,0,0.4,1,8,1.3782915813487127,0.019727269870431136,0.9474398139474235,2.378203072402838,0.019729669341799854,0.9476541513621185,1.3782030724028325,-0.9802703306582075,0.9476541513621201
3.6020000000000003,0,1.400598642264435,0.052872915170880885,0.9710041821449265,0.09615691688786472,-0.0028690243130850258,0.07232252890687339,-0.4619288784875235,-0.6236660613477895,-0.5006165000640269,4,0.4,0,12,1.399800580395111,0.03619455542883862,0.9725928254438502,2.3996883551115835,0.036144719090715566,0.9726904533369767,1.3996883551115766,-0.9638552809092905,0.972690453336979
3.6020000000000003,1,2.3956876155879634,0.0491297787635534,1.0129397161782205,0.09548224190808433,0.1856681959524272,0.2191761350403665,0.11821822301767065,1.0744380267520683,-0.230562172316829,2,0.4,0,12,1.399800580395111,0.03619455542883862,0.9725928254438502,2.3996883551115835,0.036144719090715566,0.9726904533369767,1.3996883551115766,-0.9638552809092905,0.972690453336979
3.6020000000000003,2,1.3924762579959573,-0.9337341955359788,0.9925682824859858,0.7403567000616902,0.020989180866733074,0.28837334263700887,5.872674128157171,-0.48177561535749824,1.7575228285362883,2,0.4645405073623091,0,9,1.399800580395111,0.03619455542883862,0.9725928254438502,2.3996883551115835,0.036144719090715566,0.9726904533369767,1.3996883551115766,-0.9638552809092905,0.972690453336979
3.802,0,1.3759717771178437,0.06993983651137148,1.0308136856523862,-0.12313432573295718,0.08533460670245308,0.29904751753729875,-1.096456213104111,0.4410181550776911,1.1336249431521281,2,0.4,0,13,1.4082636317419106,0.07208539828621843,1.002500879793607,2.4081479592605897,0.07205101155830376,1.0024311979579843,1.4081479592605843,-0.9279489884417013,1.0024311979579865
3.802,1,2.4019786389581173,0.09936162265142112,1.0592915581209612,0.012303524035851193,0.2989507935672577,0.23791676893313604,-0.19151592814919138,0.47791574127918246,0.06157559219431938,0,0.4,1,12,1.4082636317419106,0.07208539828621843,1.002500879793607,2.4081479592605897,0.07205101155830376,1.0024311979579843,1.4081479592605843,-0.9279489884417013,1.0024311979579865
3.802,2,1.4114532002236135,-0.9235614191780614,1.0150230663651314,0.09040102366519684,0.05741383903730258,0.09682297827108244,-0.04483687473084941,0.06549957247715757,-0.15450941124644935,0,0.4,1,9,1.4082636317419106,0.07208539828621843,1.002500879793607,2.4081479592605897,0.07205101155830376,1.0024311979579843,1.4081479592605843,-0.9279489884417013,1.0024311979579865
4.002000000000001,0,1.400553020466806,0.04525988414422888,1.0513174678342254,0.12290621674481156,-0.1233997618357126,0.10251891090919586,1.23020271238884,-1.0436718426908251,-0.9826430331405114,1,0.4,0,14,1.4158653227986022,0.0968596618410221,1.0249912373525696,2.415770003526059,0.09684767105975177,1.0246756781452973,1.4157700035260534,-0.9031523289402524,1.0246756781452995
4.002000000000001,1,2.395766301901224,0.10624912463132041,1.0428301499033323,0.04351258352005769,0.11834962698702063,-0.021759053156926656,0.15604529742103201,-0.9030058329011825,-1.2983791104503093,2,0.4,0,13,1.4158653227986022,0.0968596618410221,1.0249912373525696,2.415770003526059,0.09684767105975177,1.0246756781452973,1.4157700035260534,-0.9031523289402524,1.0246756781452995
4.002000000000001,2,1.383041319685808,-0.8832155463069533,1.0386847291349488,0.013196377480007529,0.1268141392208118,0.21652916507077363,-0.38602323092594537,0.3470015009175451,0.5985309339984541,3,0.4756584887961253,0,10,1.4158653227986022,0.0968596618410221,1.0249912373525696,2.415770003526059,0.09684767105975177,1.0246756781452973,1.4157700035260534,-0.9031523289402524,1.0246756781452995
4.2010000000000005,0,1.3943112507832605,0.15457416981642824,1.0721983628122045,-0.031365676801736235,0.5493180184532636,0.10492912049235778,-0.7752356459625523,3.3804913582360636,0.012111605945537287,4,0.4,0,15,1.4023774180027897,0.14785801359316467,1.0617717932747484,2.402292328041293,0.14785929933010955,1.0613202235108414,1.4022907763088805,-0.8521386431601439,1.0614599534452913
4.2010000000000005,1,2.3888122636450175,0.1682558283966047,1.0617143210793052,-0.034944915860334456,0.3115914762074589,0.09489533254257666,-0.39425879085624227,0.9710645689469269,0.586202943213585,2,0.4,0,14,1.4023774180027897,0.14785801359316467,1.0617717932747484,2.402292328041293,0.14785929933010955,1.0613202235108414,1.4022907763088805,-0.8521386431601439,1.0614599534452913
4.2010000000000005,2,1.3916818307261338,-0.8154432294605116,1.0584996205236332,0.04341965346897454,0.34056440626352635,0.09957231853610213,0.15187575873852782,1.0741219449382648,-0.5877228469078974,3,0.4,0,11,1.4023774180027897,0.14785801359316467,1.0617717932747484,2.402292328041293,0.14785929933010955,1.0613202235108414,1.4022907763088805,-0.8521386431601439,1.0614599534452913
4.402,0,1.3805580688485657,0.20638206814189175,1.1042676165890244,-0.06842379071987516,0.25775073793762987,0.15954852625283455,-0.18436872596089052,-1.450583485152409,0.2717383371168004,3,0.4,0,16,1.3862382402413391,0.18990186079707763,1.086909661729765,2.3861629219727694,0.18984484239682559,1.0857009102617414,1.3861489366184416,-0.8100593685215877,1.086653106411529
4.402,1,2.3691041046575214,0.1893442473050857,1.0587587617972347,-0.09805054222634792,0.1049175070073684,-0.014704275035175966,-0.3139583401294208,-1.0282287024880143,-0.5452716794913076,1,0.4,0,15,1.3862382402413391,0.18990186079707763,1.086909661729765,2.3861629219727694,0.18984484239682559,1.0857009102617414,1.3861489366184416,-0.8100593685215877,1.086653106411529
4.402,2,1.4005482425440816,-0.8064913751311913,1.0811144049918522,0.04411150158182985,0.0445365887030863,0.11251136551352794,0.0034420304122154805,-1.4727752117434856,0.06437336804689472,2,0.4,0,12,1.3862382402413391,0.18990186079707763,1.086909661729765,2.3861629219727694,0.18984484239682559,1.0857009102617414,1.3861489366184416,-0.8100593685215877,1.086653106411529
4.602,0,1.3698655847834964,0.25044969623648505,1.1171532907588588,-0.05346242032534582,0.22033814047296632,0.06442837084917269,0.07480685197264661,-0.18706298732331758,-0.4756007770183089,5,0.4,0,17,1.3755018055355135,0.2242431042790691,1.1034864091706702,2.375379616239481,0.22433837578772797,1.102317066772957,1.3754189270570278,-0.7757011456636902,1.1032863869072318
4.602,1,2.3621840289192315,0.23280947813136743,1.1050762215064966,-0.03460037869144947,0.21732615413140846,0.2315872985463089,0.317250817674492,0.5620432356201998,1.2314578679074233,3,0.4,0,16,1.3755018055355135,0.2242431042790691,1.1034864091706702,2.375379616239481,0.22433837578772797,1.102317066772957,1.3754189270570278,-0.7757011456636902,1.1032863869072318
4.602,2,1.3973226227956415,-0.7834148846849045,1.1232088123070367,-0.016128098742200767,0.11538245223143385,0.2104720365759231,-0.3011980016201528,0.3542293176417375,0.4898033553119753,5,0.4,0,13,1.3755018055355135,0.2242431042790691,1.1034864091706702,2.375379616239481,0.22433837578772797,1.102317066772957,1.3754189270570278,-0.7757011456636902,1.1032863869072318
4.801,0,1.3775459444568465,0.254884654909066,1.1316828599190791,0.03859477222789066,0.022286224485331296,0.07301291035286589,0.46259895755395253,-0.9952357587318351,0.04313838946579501,3,0.4,0,18,1.367997527555614,0.2524888841336148,1.1141613724253765,2.36787604694948,0.2526977991927227,1.1136164113906826,1.3679106911467298,-0.7474182124177394,1.114003544027961
4.801,1,2.337722741967746,0.2728776488306952,1.1148672582176407,-0.1229210399572127,0.20134759145390857,0.04920118950323626,-0.44382241842092107,-0.0802942848115573,-0.91651311076921,1,0.4,0,17,1.367997527555614,0.2524888841336148,1.1141613724253765,2.36787604694948,0.2526977991927227,1.1136164113906826,1.3679106911467298,-0.7474182124177394,1.114003544027961
4.801,2,1.3460262955138038,-0.7861635747098399,1.1242968522069907,-0.25777048885345566,-0.013812512688117524,0.005467537185697865,-1.2142833673932416,-0.6492209292439772,-1.0301733637699768,1,0.4,0,14,1.367997527555614,0.2524888841336148,1.1141613724253765,2.36787604694948,0.2526977991927227,1.1136164113906826,1.3679106911467298,-0.7474182124177394,1.114003544027961
5.002000000000001,0,1.3587411471789506,0.271392900715719,1.1335798886337347,-0.09355620536266682,0.08213057615250227,0.00943795380425604,-0.6574675502017767,0.29773309287149663,-0.31629331616223727,4,0.4,0,19,1.3640967331331875,0.27603721709687534,1.1229474875338046,2.3639973203012112,0.27622796486618356,1.1228812770041676,1.3640436562691687,-0.7239159771203939,1.1232271280228328
5.002000000000001,1,2.3721935828757212,0.28289964800155665,1.1516165178101843,0.17149672093519983,0.04986069239234534,0.18283213727633532,1.4647649795642377,-0.7536661644853873,0.6648305859358146,2,0.4,0,18,1.3640967331331875,0.27603721709687534,1.1229474875338046,2.3639973203012112,0.27622796486618356,1.1228812770041676,1.3640436562691687,-0.7239159771203939,1.1232271280228328
5.002000000000001,2,1.3439185024072122,-0.6934120378655297,1.1415129040331933,-0.010486532868614314,0.4614504320612433,0.08565199913533535,1.230268437735526,2.364492262434625,0.3989276713912302,3,0.4,0,15,1.3640967331331875,0.27603721709687534,1.1229474875338046,2.3639973203012112,0.27622796486618356,1.1228812770041676,1.3640436562691687,-0.7239159771203939,1.1232271280228328
5.202,0,1.3065838791127624,0.32758079148241337,1.1545950260630486,-0.26078634033094167,0.28093945383347296,0.1050756871465706,-0.8361506748413773,0.994044388404857,0.47818866671157456,5,0.4,0,20,1.3303983124659817,0.3164757594300394,1.1464688567304273,2.330310401889665,0.31659204186109235,1.1465777127840922,1.3303471129087983,-0.6835431234482593,1.1470567803616045
5.202,1,2.3109641929028983,0.31548939901876794,1.172702387702437,-0.3061469498641156,0.16294875508605702,0.10542934946126496,-2.388218353996586,0.5654403134685605,-0.3870139390753532,2,0.4,0,19,1.3303983124659817,0.3164757594300394,1.1464688567304273,2.330310401889665,0.31659204186109235,1.1465777127840922,1.3303471129087983,-0.6835431234482593,1.1470567803616045
5.202,2,1.3327333774188086,-0.6716103934280482,1.1614206475891178,-0.055925624942018894,0.10900822218740819,0.09953871777962343,-0.2271954603670237,-1.7622110493691818,0.06943359322144069,4,0.4,0,16,1.3303983124659817,0.3164757594300394,1.1464688567304273,2.330310401889665,0.31659204186109235,1.1465777127840922,1.3303471129087983,-0.6835431234482593,1.1470567803616045
5.402,0,1.2512231031719359,0.3745502251552515,1.1696010681419124,-0.2768038797041331,0.2348471683641904,0.07503021039431894,-0.08008769686595717,-0.23046142734641265,-0.1502273837612582,3,0.4,0,21,1.3011482365735825,0.35070506915873884,1.1593681907532536,2.3011058541194997,0.350814748884208,1.159483583325739,1.3010942668277776,-0.6492409885637227,1.16058358800758
5.402,1,2.287290408064326,0.37007776517110025,1.1812529412928847,-0.11836892419286305,0.27294183076166134,0.04275276795223878,0.938890128356262,0.5499653783780211,-0.31338290754513065,2,0.4,0,20,1.3011482365735825,0.35070506915873884,1.1593681907532536,2.3011058541194997,0.350814748884208,1.159483583325739,1.3010942668277776,-0.6492409885637227,1.16058358800758
5.402,2,1.270726200423591,-0.6602930565928582,1.1986171164602895,-0.3100358849760873,0.05658668417594987,0.1859823443558582,-1.2705513001703408,-0.26210769005729134,0.43221813288117344,1,0.4,0,17,1.3011482365735825,0.35070506915873884,1.1593681907532536,2.3011058541194997,0.350814748884208,1.159483583325739,1.3010942668277776,-0.6492409885637227,1.16058358800758
5.602,0,1.2957274752471402,0.39383740172267157,1.1767083164212497,0.22252186037602242,0.09643588283710028,0.03553624139668695,2.4966287004007754,-0.6920564276354499,-0.19746984498815975,5,0.4,0,22,1.2783690099296185,0.38087764296787663,1.167457014111089,2.2783508826830636,0.3809793484289041,1.167570335864491,1.2784222060525987,-0.6191625353055418,1.1686040800286635
5.602,1,2.2657741279720254,0.4103716515329021,1.2026712404099298,-0.10758140046150157,0.20146943180900917,0.10709149558522525,0.053937618656807344,-0.3573619947632605,0.3216936381649321,1,0.4,0,21,1.2783690099296185,0.38087764296787663,1.167457014111089,2.2783508826830636,0.3809793484289041,1.167570335864491,1.2784222060525987,-0.6191625353055418,1.1686040800286635
5.602,2,1.1889397487306483,-0.5974224590195445,1.185169411266377,-0.4089322584647133,0.31435298786656823,-0.0672385259695612,-0.4944818674431296,1.2888315184530907,-1.2661043516270958,1,0.4,0,18,1.2783690099296185,0.38087764296787663,1.167457014111089,2.2783508826830636,0.3809793484289041,1.167570335864491,1.2784222060525987,-0.6191625353055418,1.1686040800286635
5.8020000000000005,0,1.2378213446763948,0.4221966629466509,1.1872313232655354,-0.28953065285372753,0.14179630611989666,0.05261503422142761,-2.5602625661487477,0.2268021164139817,0.08539396412370323,5,0.4,0,23,1.2604955800514235,0.4072516545086109,1.1722007875993976,2.2604950405049493,0.40736672277046926,1.172497663741907,1.2606055790969184,-0.5928302767004634,1.1733429019356647
5.8020000000000005,1,2.2404838559702984,0.4596871561071625,1.2189970644068162,-0.12900498697813326,0.2570709882353268,0.07922988348063767,-0.02553626969496993,0.10493465364024676,-0.02399236503793578,0,0.4,1,21,1.2604955800514235,0.4072516545086109,1.1722007875993976,2.2604950405049493,0.40736672277046926,1.172497663741907,1.2606055790969184,-0.5928302767004634,1.1733429019356647
5.8020000000000005,2,1.2722924327560414,-0.5538790733340848,1.2041215822284328,0.4167634201269645,0.2177169284272982,0.09476085481027732,4.128478392958385,-0.48318029719634975,0.8099969038991919,3,0.4,0,19,1.2604955800514235,0.4072516545086109,1.1722007875993976,2.2604950405049493,0.40736672277046926,1.172497663741907,1.2606055790969184,-0.5928302767004634,1.1733429019356647
6.003,0,1.2334568940154935,0.4288936936947876,1.1801345183207683,-0.021713684880106,0.03331856093600333,-0.0353074872873989,1.3324227262369255,-0.539690274546734,-0.4374254801434163,6,0.4,0,24,1.2464482415594018,0.4303850507550119,1.1743638389109736,2.2464885936420567,0.4304348039510746,1.174433464426587,1.2466130616846176,-0.569793277773754,1.1751016151419393
6.003,1,2.2185246055855465,0.41528549894096,1.1946290537352748,-0.07814098914670185,-0.2054208488740771,-0.10467173905273194,0.2530547155792612,-2.3009544134796256,-0.9149334454396515,1,0.4,0,22,1.2464482415594018,0.4303850507550119,1.1743638389109736,2.2464885936420567,0.4304348039510746,1.174433464426587,1.2466130616846176,-0.569793277773754,1.1751016151419393
6.003,2,1.2549594899944607,-0.5523829230801365,1.188713012042728,-0.08623354607751556,0.00744353360173303,-0.07665955316270974,-2.5024724686790103,-1.0461362926645053,-0.8528378506118776,1,0.4,0,20,1.2464482415594018,0.4303850507550119,1.1743638389109736,2.2464885936420567,0.4304348039510746,1.174433464426587,1.2466130616846176,-0.569793277773754,1.1751016151419393
6.203,0,1.2235176298139645,0.44392846062404057,1.1891194408922714,-0.0496963210076445,0.07517383464626486,0.044924612857515325,-0.13991318063769237,0.20927636855130746,0.40116050072457077,7,0.4,0,25,1.235619747472714,0.4506079630652935,1.1744513495957913,2.2356561640149333,0.45068621634802086,1.174718625817251,1.235795099614976,-0.5496042989856753,1.1749126531188305
6.203,1,2.203710551474442,0.4456275300414829,1.1842530886221705,-0.07407027055552177,0.15171015550261444,-0.05187982556552168,0.020353592955900373,1.7856550218834562,0.2639595674360511,1,0.4,0,23,1.235619747472714,0.4506079630652935,1.1744513495957913,2.2356561640149333,0.45068621634802086,1.174718625817251,1.235795099614976,-0.5496042989856753,1.1749126531188305
6.203,2,1.2010311100462738,-0.5435002046236543,1.1855331531776128,-0.2696418997409342,0.044413592282410666,-0.015899294325577004,-0.9170417683170926,0.18485029340338804,0.30380129418566343,2,0.4,0,21,1.235619747472714,0.4506079630652935,1.1744513495957913,2.2356561640149333,0.45068621634802086,1.174718625817251,1.235795099614976,-0.5496042989856753,1.1749126531188305
6.402,0,1.1878529683756787,0.5059481405538149,1.2005783373267405,-0.17921940421249236,0.31165668306419275,0.057582394143061245,-0.6508697648484821,1.1883560222006435,0.06360694113339663,6,0.4,0,26,1.214218507836286,0.47631749703706555,1.1870213261069313,2.214238883607619,0.476368753262545,1.1873718528973427,1.2143312385876432,-0.5237679582009154,1.187326875824003
6.402,1,2.227476639031789,0.5044781086378645,1.1998461141594385,0.11942757566505868,0.2957315507355859,0.07835691224757874,0.9723509860330685,0.7237256041857867,0.6544559689100529,2,0.4,0,24,1.214218507836286,0.47631749703706555,1.1870213261069313,2.214238883607619,0.476368753262545,1.1873718528973427,1.2143312385876432,-0.5237679582009154,1.187326875824003
6.402,2,1.2167937244371174,-0.5099438100854008,1.1991838925126965,0.07920911754192764,0.16862509818217875,0.0685966800757984,1.7530201873510658,0.6241784216068753,0.42460288643907274,3,0.4,0,22,1.214218507836286,0.47631749703706555,1.1870213261069313,2.214238883607619,0.476368753262545,1.1873718528973427,1.2143312385876432,-0.5237679582009154,1.187326875824003
6.602,0,1.1677587450888653,0.5170212368110252,1.210745518272758,-0.1004711164340654,0.05536548128605152,0.05083590473008765,0.3937414388921345,-1.281456008890705,-0.03373244706486794,6,0.4,0,27,1.1722019984357877,0.5015615183336865,1.1965857348172204,2.1722682331814913,0.5016047498010504,1.1968670690070615,1.172347195962965,-0.49852951280795155,1.1967729693100717
6.602,1,2.1530164033498886,0.5276982912179901,1.2206995801167877,-0.3723011784095006,0.11610091290062786,0.10426732978674515,-2.4586437703727944,-0.8981531891747894,0.12955208769583193,2,0.4,0,25,1.1722019984357877,0.5015615183336865,1.1965857348172204,2.1722682331814913,0.5016047498010504,1.1968670690070615,1.172347195962965,-0.49852951280795155,1.1967729693100717
6.602,2,1.1763731441804484,-0.49549266578316065,1.2025823936823474,-0.20210290128334568,0.07225572151120067,0.0169925058482545,-1.4065600941263654,-0.48184688335488995,-0.25802087113771927,3,0.4,0,23,1.1722019984357877,0.5015615183336865,1.1965857348172204,2.1722682331814913,0.5016047498010504,1.1968670690070615,1.172347195962965,-0.49852951280795155,1.1967729693100717
6.801,0,1.1342105235864004,0.5336730932672621,1.214769136842993,-0.16858402765057776,0.08367767063435635,0.020219188795149817,-0.34227593576136894,0.142272308282939,-0.1538528438941601,8,0.4,0,28,1.1386308088788897,0.5245971157355351,1.2004811110996993,2.1387240747768805,0.5246221793458545,1.200689598398957,1.1387727155410383,-0.4754981639426487,1.2006099822183258
6.801,1,2.0872956102699565,0.533655107190022,1.229863272188212,-0.33025524160770187,0.02993374860317542,0.04604870387650356,0.2112861145819034,-0.43300082561533926,-0.2925559090966916,2,0.4,0,26,1.1386308088788897,0.5245971157355351,1.2004811110996993,2.1387240747768805,0.5246221793458545,1.200689598398957,1.1387727155410383,-0.4754981639426487,1.2006099822183258
6.801,2,1.1229608783463023,-0.46492808398048857,1.2058032865637138,-0.26840334590023157,0.15359086333001054,0.016185391363650263,-0.3331680634014369,0.40871930562216047,-0.004055851681428326,3,0.4,0,24,1.1386308088788897,0.5245971157355351,1.2004811110996993,2.1387240747768805,0.5246221793458545,1.200689598398957,1.1387727155410383,-0.4754981639426487,1.2006099822183258
7.002000000000001,0,1.0986769821688092,0.5503254153611035,1.2138714274335927,-0.17678378814721965,0.08284737360120066,-0.004466215967164358,-0.04079482834150186,-0.004130831010724836,-0.12281295901648812,4,0.4,0,29,1.1109233836601657,0.5461447790248791,1.2010957455975182,2.1109856093029817,0.5462217642219116,1.2015717147148004,1.1110131955613816,-0.4538840967331919,1.2015132767032444
7.002000000000001,1,2.1087007727991773,0.5475713527893027,1.2152483285329105,0.10649334591652256,0.06923505273273978,-0.07271116246418513,2.1728785448966335,0.19552887626648882,-0.590845106172579,2,0.4,0,27,1.1109233836601657,0.5461447790248791,1.2010957455975182,2.1109856093029817,0.5462217642219116,1.2015717147148004,1.1110131955613816,-0.4538840967331919,1.2015132767032444
7.002000000000001,2,1.0926588537671929,-0.4662005981797348,1.1932203883074126,-0.1507563411895984,-0.006330916414160347,-0.06260148386219493,0.5853084811474272,-0.7956307449958729,-0.3919745036111691,1,0.4,0,25,1.1109233836601657,0.5461447790248791,1.2010957455975182,2.1109856093029817,0.5462217642219116,1.2015717147148004,1.1110131955613816,-0.4538840967331919,1.2015132767032444
7.2010000000000005,0,1.0920522972621576,0.5821550839702867,1.2005175745843597,-0.03328987390277234,0.15994808346323247,-0.06710478818710147,0.7210749459519971,0.38744075307553705,-0.3147666945725486,8,0.4,0,30,1.0880095180036968,0.5662234513910399,1.1999762217060954,2.087964912672256,0.5663789215339663,1.2009057654764328,1.0881173144792604,-0.4338169322999861,1.2004776171356633
7.2010000000000005,1,2.0790311318606536,0.5837569623015588,1.212058558524744,-0.14909367305790955,0.18183723372993046,-0.01602899501591237,-1.284356879268504,0.5658401055135215,0.2848350123028784,2,0.4,0,28,1.0880095180036968,0.5662234513910399,1.1999762217060954,2.087964912672256,0.5663789215339663,1.2009057654764328,1.0881173144792604,-0.4338169322999861,1.2004776171356633
7.2010000000000005,2,1.0401719415293398,-0.39540139415993303,1.195408790640617,-0.26375332782840705,0.3557748945718685,0.010996996649268283,-0.5678240534613503,1.8196271908845685,0.3698416106103682,1,0.4,0,26,1.0880095180036968,0.5662234513910399,1.1999762217060954,2.087964912672256,0.5663789215339663,1.2009057654764328,1.0881173144792604,-0.4338169322999861,1.2004776171356633
7.4030000000000005,0,1.064538268305471,0.6219062712097421,1.1950804293681438,-0.13620806414201256,0.19678805564086818,-0.02691656047631557,-0.5094959912833675,0.18237609988928574,0.19895162233062333,7,0.4,0,31,1.0688569235863323,0.5849073419138551,1.1975677679036967,2.068896010759401,0.5849919339260843,1.198452913996922,1.0690119597003818,-0.41517129573537137,1.1979942968588588
7.4030000000000005,1,2.0331848546408295,0.5637869265972267,1.200097447976955,-0.22696176841497054,-0.09886156289273314,-0.05921341855341052,-0.3854856205795099,-1.3895980030824935,-0.21378427493810973,2,0.4,0,29,1.0688569235863323,0.5849073419138551,1.1975677679036967,2.068896010759401,0.5849919339260843,1.198452913996922,1.0690119597003818,-0.41517129573537137,1.1979942968588588
7.4030000000000005,2,1.074879190862048,-0.35042389971905297,1.2034188340844878,0.17181806600350594,0.22266086356871323,0.03965368041520142,2.1562940288708567,-0.6589803515007688,0.1418647711184809,1,0.4,0,27,1.0688569235863323,0.5849073419138551,1.1975677679036967,2.068896010759401,0.5849919339260843,1.198452913996922,1.0690119597003818,-0.41517129573537137,1.1979942968588588
7.603000000000001,0,1.0414346074404472,0.6168148013728405,1.2073836756137886,-0.1155183043251189,-0.02545734918450779,0.06151623122822297,0.10344879908446816,-1.111227024126879,0.44216395852269236,11,0.4,0,32,1.0530269584351482,0.6021858337345992,1.1944371140013534,2.053120078128749,0.6022165147232008,1.195168106653254,1.0531748724518366,-0.3979329455649071,1.1945287017848603
7.603000000000001,1,2.0511053497197134,0.5972906038151425,1.2287813393068707,0.08960247539442015,0.1675183860895789,0.14341945664957875,1.582821219046952,1.331899744911559,1.0131643760149456,2,0.4,0,30,1.0530269584351482,0.6021858337345992,1.1944371140013534,2.053120078128749,0.6022165147232008,1.195168106653254,1.0531748724518366,-0.3979329455649071,1.1945287017848603
7.603000000000001,2,1.0487083558895574,-0.3664968793735952,1.196892721774934,-0.130854174862453,-0.08036489827271114,-0.032630561547767306,-1.513361204329793,-1.5151288092071205,-0.3614212098148433,3,0.4,0,28,1.0530269584351482,0.6021858337345992,1.1944371140013534,2.053120078128749,0.6022165147232008,1.195168106653254,1.0531748724518366,-0.3979329455649071,1.1945287017848603
7.803000000000001,0,1.0385672497314555,0.6320967476507824,1.2084154760687231,-0.01433678854495911,0.07640973138970934,0.005159002274672804,0.5059075789007985,0.5093354028710853,-0.2817861447677506,6,0.4,0,33,1.042326079037366,0.6182351876111816,1.1918600910171928,2.042590293620763,0.6177221944613135,1.1916978962551736,1.0425912278982585,-0.3823709783525834,1.1911503496020626
7.803000000000001,1,2.005019967116791,0.6296250749301527,1.2298037432084643,-0.23042691301461285,0.16167235557505086,0.005112019507967354,-1.6001469420451635,-0.029230152572640142,-0.6915371857080563,1,0.4,0,31,1.042326079037366,0.6182351876111816,1.1918600910171928,2.042590293620763,0.6177221944613135,1.1916978962551736,1.0425912278982585,-0.3823709783525834,1.1911503496020626
7.803000000000001,2,1.0542463946418463,-0.3749047395642846,1.226967630925545,0.027690193761444302,-0.042039300953446955,0.15037454575305406,0.7927218431194857,0.19162798659632074,0.915025536504106,2,0.4,0,29,1.042326079037366,0.6182351876111816,1.1918600910171928,2.042590293620763,0.6177221944613135,1.1916978962551736,1.0425912278982585,-0.3823709783525834,1.1911503496020626
8.003,0,1.004843557435894,0.637901111254017,1.221176335750956,-0.16861846147780696,0.02902181801617342,0.06380429841116497,-0.7714083646642419,-0.23693956686768045,0.2932264806824619,11,0.4,0,34,1.0001468451275277,0.6380232843521988,1.205003812004671,2.004020928395956,0.6381622444785673,1.204609232692517,1.0039403108619867,-0.36190813010976125,1.2041780029890246
8.003,1,2.0158615269264737,0.6707854602894177,1.2200449097071062,0.054207799048414856,0.2058019267963253,-0.04879416750679117,1.4231735603151436,0.22064785610637302,-0.26953093507379355,2,0.4,0,32,1.0001468451275277,0.6380232843521988,1.205003812004671,2.004020928395956,0.6381622444785673,1.204609232692517,1.0039403108619867,-0.36190813010976125,1.2041780029890246
8.003,2,1.063642437217226,-0.4035539101381085,1.2594203572249285,0.06519438159575056,-0.18596815224418473,0.18961451177190444,0.18214168718852472,-0.4272229937506474,0.27350880274986566,0,0.4,1,29,1.0001468451275277,0.6380232843521988,1.205003812004671,2.004020928395956,0.6381622444785673,1.204609232692517,1.0039403108619867,-0.36190813010976125,1.2041780029890246
8.202,0,0.9398898075751045,0.6601066265529885,1.221555533983329,-0.3264007530692948,0.11158550401493181,0.001905518755644229,-0.7928758371431555,0.4148928944661228,-0.3110491439975919,10,0.4,0,35,0.9586254314983669,0.651365303917441,1.2057132787459341,1.9620156547721839,0.6512368052302776,1.2052265347812303,0.9620082685040146,-0.3488207127518227,1.2047908424453333
8.202,1,1.9691038629898718,0.6790657327897898,1.206206479420902,-0.2349631353598085,0.04160940954960862,-0.0695398506844429,-1.453120273408159,-0.8250880263654111,-0.10424966420930527,3,0.4,0,33,0.9586254314983669,0.651365303917441,1.2057132787459341,1.9620156547721839,0.6512368052302776,1.2052265347812303,0.9620082685040146,-0.3488207127518227,1.2047908424453333
8.202,2,0.964562424634603,-0.3521943024523886,1.2724758900139632,-0.5286779411205674,0.19173562327918214,0.10328497583217391,-2.9842830287252182,1.8980089222279757,-0.43381676351623416,1,0.4,0,30,0.9586254314983669,0.651365303917441,1.2057132787459341,1.9620156547721839,0.6512368052302776,1.2052265347812303,0.9620082685040146,-0.3488207127518227,1.2047908424453333
8.403,0,0.9194294835352139,0.6762299099204502,1.221871349427955,-0.10179265691487872,0.08021534013662525,0.0015712211175411786,1.1174532146985845,-0.15607046705625113,-0.0016631723288708928,9,0.4,0,36,0.9230886680345647,0.6659250344919031,1.2034089431142116,1.9260886875254712,0.6655908618853542,1.20273965865085,0.9259440003832877,-0.33437064792693744,1.2027782587479667
8.403,1,1.9001602171525611,0.6718470043474339,1.1993495696200738,-0.343003213120948,-0.03591407185251646,-0.03411397910859794,-0.5375128246822847,-0.38568896219962634,0.17624811729276058,2,0.4,0,34,0.9230886680345647,0.6659250344919031,1.2034089431142116,1.9260886875254712,0.6655908618853542,1.20273965865085,0.9259440003832877,-0.33437064792693744,1.2027782587479667
8.403,2,0.9239148630409267,-0.3178469668107755,1.2242816881347345,-0.20222667459540383,0.17088226687369645,-0.23977214865287924,1.6241356543540437,-0.10374804181833651,-1.706751863109713,2,0.4,0,31,0.9230886680345647,0.6659250344919031,1.2034089431142116,1.9260886875254712,0.6655908618853542,1.20273965865085,0.9259440003832877,-0.33437064792693744,1.2027782587479667
8.602,0,0.8723639014711875,0.6861273166941242,1.2139571164616698,-0.23651046263329836,0.04973571243052271,-0.03977001490595601,-0.6769738980825112,-0.15316395832212343,-0.20774490464068954,11,0.4,0,37,0.8924710553875493,0.680710113937381,1.1995423441314004,1.8950456033372078,0.6802785094566741,1.1988926140903178,0.8948630801854193,-0.3196325959880462,1.1993403408625767
8.602,1,1.8996890062193112,0.6753381293509172,1.2191478217208038,-0.0023678941369340016,0.01754334172604651,0.09948870402376918,1.7117352712764535,0.26863021898775385,0.6713702669968202,4,0.4,0,35,0.8924710553875493,0.680710113937381,1.1995423441314004,1.8950456033372078,0.6802785094566741,1.1988926140903178,0.8948630801854193,-0.3196325959880462,1.1993403408625767
8.602,2,0.8636881532277574,-0.30805015755131593,1.1938929592185576,-0.3026467829807505,0.04923019728371653,-0.15270718048330023,-0.504623660227873,-0.6113169326129649,0.43751240286220644,4,0.4,0,32,0.8924710553875493,0.680710113937381,1.1995423441314004,1.8950456033372078,0.6802785094566741,1.1988926140903178,0.8948630801854193,-0.3196325959880462,1.1993403408625767
8.802000000000001,0,0.8753606251886545,0.7006557014662395,1.220335693389496,0.014983618587334966,0.07264192386057594,0.03189288463913181,1.2574704061031599,0.11453105715026556,0.3583144977254372,10,0.4,0,38,0.8660676055480114,0.6954997032584637,1.1948565001313738,1.8682520823822304,0.6950254774431425,1.1943946551625406,0.868138113565199,-0.3049192056703952,1.194832916735389
8.802000000000001,1,1.8720323851525575,0.6946059522747909,1.2126137256718073,-0.13828310533376778,0.09633911461936821,-0.032670480244982696,-0.6795760559841653,0.39397886446660646,-0.6607959213437559,3,0.4,0,36,0.8660676055480114,0.6954997032584637,1.1948565001313738,1.8682520823822304,0.6950254774431425,1.1943946551625406,0.868138113565199,-0.3049192056703952,1.194832916735389
8.802000000000001,2,0.8291931917712576,-0.28853731032682806,1.2156248333431154,-0.17247480728249823,0.09756423612243885,0.10865937062278783,0.6508598784912578,0.2416701941936103,1.3068327555304335,6,0.4,0,33,0.8660676055480114,0.6954997032584637,1.1948565001313738,1.8682520823822304,0.6950254774431425,1.1943946551625406,0.868138113565199,-0.3049192056703952,1.194832916735389
9.001000000000001,0,0.8383677177538298,0.7260165723158367,1.198090903312591,-0.18589400721017477,0.1274415620582778,-0.11178286470806567,-1.009435305515125,0.2753750663201101,-0.7219886901869226,16,0.4,0,39,0.8433312495746055,0.7101267738771025,1.1900049334719194,1.8451897071507048,0.7096279441665964,1.1897319453370667,0.8451209894610382,-0.29034519698259575,1.1900860501800434
9.001000000000001,1,1.858597116963005,0.706709745540695,1.2598628991153236,-0.06751391050026463,0.060823081738211354,0.2374330323794797,0.35562409464071965,-0.17847252704098937,1.3573040835400132,1,0.4,0,37,0.8433312495746055,0.7101267738771025,1.1900049334719194,1.8451897071507048,0.7096279441665964,1.1897319453370667,0.8451209894610382,-0.29034519698259575,1.1900860501800434
9.001000000000001,2,0.84572333416526,-0.28950138545284343,1.1973483243455483,0.0830660421809167,-0.004844598623192835,-0.09184175375661843,1.284124871675453,-0.5146172600283003,-1.007543338589982,4,0.4,0,34,0.8433312495746055,0.7101267738771025,1.1900049334719194,1.8451897071507048,0.7096279441665964,1.1897319453370667,0.8451209894610382,-0.29034519698259575,1.1900860501800434
9.202,0,0.8266367027671695,0.7323370924823014,1.1998983037364095,-0.05836325864010133,0.031445373962511,0.008992041909545083,0.6344813361695235,-0.4775929756008329,0.6008701821771717,15,0.4,0,40,0.8239269775077884,0.7243271110205995,1.1848609690370075,1.8255135015502344,0.7238147676055493,1.184738203308184,0.8254728907678077,-0.27618074347525823,1.1850101780394582
9.202,1,1.8516954541025628,0.7515449075351317,1.1919901554875905,-0.03433663114647851,0.2230605074350099,-0.3376753414315112,0.16506109131236982,0.8071513716258686,-2.861235690601963,4,0.4,0,38,0.8239269775077884,0.7243271110205995,1.1848609690370075,1.8255135015502344,0.7238147676055493,1.184738203308184,0.8254728907678077,-0.27618074347525823,1.1850101780394582
9.202,2,0.8334778116363777,-0.2503252142999053,1.1929848450378548,-0.06092299765613168,0.1949063241439721,-0.021708852277081876,-0.7163633822738771,0.9937856854087871,0.34891990785839305,4,0.4,0,35,0.8239269775077884,0.7243271110205995,1.1848609690370075,1.8255135015502344,0.7238147676055493,1.184738203308184,0.8254728907678077,-0.27618074347525823,1.1850101780394582
9.403,0,0.7931940918911105,0.7394016507054658,1.1876852994053562,-0.16638114863710923,0.035147055836638866,-0.060761215577380664,-0.5374024377960578,0.018416327731979383,-0.3470311317757491,15,0.4,0,41,0.8074496446347902,0.7379599966725617,1.1794576182908334,1.8088155183678223,0.7374263354233365,1.179321195125014,0.8087815732080125,-0.2625692747438655,1.1796505158495836
9.403,1,1.7792115461007045,0.7589020695157568,1.205246460742238,-0.36061645772068673,0.03660279592350778,0.06595176743605811,-1.6232827192746637,-0.9276503060273715,2.008095068992877,3,0.4,0,39,0.8074496446347902,0.7379599966725617,1.1794576182908334,1.8088155183678223,0.7374263354233365,1.179321195125014,0.8087815732080125,-0.2625692747438655,1.1796505158495836
9.403,2,0.8219127075783818,-0.27815421274139007,1.210135672052206,-0.05753783113430771,-0.13845272856460059,0.08532749758383616,0.0168416244866864,-1.6585027497938898,0.5325191535369043,4,0.4,0,36,0.8074496446347902,0.7379599966725617,1.1794576182908334,1.8088155183678223,0.7374263354233365,1.179321195125014,0.8087815732080125,-0.2625692747438655,1.1796505158495836
9.604000000000001,0,0.7742593519456133,0.7770405372831344,1.1952704910895602,-0.09420268629600526,0.18725814217745507,0.03773727206071696,0.3590968275676806,0.7567715738349046,0.49004222705521083,17,0.4,0,42,0.7911825884608034,0.7519737496843729,1.1793306083882644,1.7923461795527518,0.7514022193266248,1.1790467759009957,0.7922736890585708,-0.24856229201195712,1.1796200577777296
9.604000000000001,1,1.766391876985012,0.7614220563266292,1.1846023553833542,-0.06377944833677866,0.012537247815285535,-0.10270699183524325,1.4768010417109816,-0.119729095065782,-0.8390983048323429,4,0.4,0,40,0.7911825884608034,0.7519737496843729,1.1793306083882644,1.7923461795527518,0.7514022193266248,1.1790467759009957,0.7922736890585708,-0.24856229201195712,1.1796200577777296
9.604000000000001,2,0.7866671265038199,-0.27866488163080794,1.2268516300266117,-0.17535114962468554,-0.002540641240884892,0.08316397002191937,-0.5861359128874504,0.6761795389239569,-0.0107638187160039,2,0.4,0,37,0.7911825884608034,0.7519737496843729,1.1793306083882644,1.7923461795527518,0.7514022193266248,1.1790467759009957,0.7922736890585708,-0.24856229201195712,1.1796200577777296
9.802000000000001,0,0.7407548349836417,0.7712999094678119,1.2068116526767714,-0.16921473213116964,-0.028993069774355874,0.05828869488490489,-0.3788487163392133,-1.092177838140457,0.10379506476862568,18,0.4,0,43,0.7431358426136342,0.7583217271734765,1.183861241285126,1.7440949840765085,0.7577499538604691,1.1835783038921628,0.7440884951483631,-0.24223628637083391,1.184085618918555
9.802000000000001,1,1.7335837026798762,0.7593879375073977,1.1880933113001717,-0.1656978500259382,-0.010273327369855707,0.01763109048897822,-0.5147394024705017,-0.1152049251774808,0.6077680925465718,3,0.4,0,41,0.7431358426136342,0.7583217271734765,1.183861241285126,1.7440949840765085,0.7577499538604691,1.1835783038921628,0.7440884951483631,-0.24223628637083391,1.184085618918555
9.802000000000001,2,0.7415402681219553,-0.21676001546101475,1.2031185873939194,-0.22791342617103294,0.3126508392413791,-0.11986385168026431,-0.2654660431633702,1.591876164051835,-1.0253930388999155,3,0.4,0,38,0.7431358426136342,0.7583217271734765,1.183861241285126,1.7440949840765085,0.7577499538604691,1.1835783038921628,0.7440884951483631,-0.24223628637083391,1.184085618918555
10.002,0,0.7033633811435507,0.7676154317465853,1.194178348387767,-0.18695726920045588,-0.018422388606133055,-0.06316652144502244,-0.08871268534643155,0.05285340584111429,-0.6072760816496388,11,0.4,0,44,0.7021723717229177,0.7646421764112924,1.1801133895573348,1.7029646472240294,0.7641062171818903,1.1799015639875434,0.7030158481733456,-0.2358972850026023,1.1803108555503359
10.002,1,1.7088636752436719,0.7766376746361207,1.2075755776591235,-0.12360013718102181,0.08624868564361485,0.09741133179475871,0.21048856422458273,0.48261006506735443,0.3989012065289039,3,0.4,0,42,0.7021723717229177,0.7646421764112924,1.1801133895573348,1.7029646472240294,0.7641062171818903,1.1799015639875434,0.7030158481733456,-0.2358972850026023,1.1803108555503359
10.002,2,0.6831156377456205,-0.22444482999466464,1.206785417450929,-0.29212315188167504,-0.03842407266824957,0.01833415028504821,-0.32104862855321165,-1.7553745595481498,0.690990009826565,3,0.4,0,39,0.7021723717229177,0.7646421764112924,1.1801133895573348,1.7029646472240294,0.7641062171818903,1.1799015639875434,0.7030158481733456,-0.2358972850026023,1.1803108555503359
10.201,0,0.6563139828580892,0.783730605194441,1.1869448236732558,-0.23642913711287208,0.0809807710947525,-0.03634937042467952,-0.24860235131867456,0.49951336533108365,0.13475955286604493,15,0.4,0,45,0.665977355973365,0.7727795451894811,1.1743343875532113,1.6666319739184683,0.7722833338271847,1.1741952304399967,0.6667186895821057,-0.22773928290547651,1.1745181956000401
10.201,1,1.63000193071857,0.8150872990685473,1.1699964374449134,-0.3962901734929745,0.19321419312777205,-0.18883990057392,-1.3703016900098137,0.537515112985715,-1.4384484038627083,2,0.4,0,43,0.665977355973365,0.7727795451894811,1.1743343875532113,1.6666319739184683,0.7722833338271847,1.1741952304399967,0.6667186895821057,-0.22773928290547651,1.1745181956000401
10.201,2,0.6982869227992881,-0.24572440869462886,1.2042782275606827,0.07623761333501315,-0.10693255628122732,-0.012598944172092738,1.851059121691902,-0.34426373674863214,-0.15544268571427625,3,0.4,0,40,0.665977355973365,0.7727795451894811,1.1743343875532113,1.6666319739184683,0.7722833338271847,1.1741952304399967,0.6667186895821057,-0.22773928290547651,1.1745181956000401
10.402000000000001,0,0.6199205553132299,0.7969542420893,1.1816387366782852,-0.18106182858138925,0.06578923828288016,-0.02639844276104711,0.275459246425287,-0.07557976523319554,0.04950710280414122,21,0.4,0,46,0.6339128266367059,0.7821247723221838,1.16778712354303,1.634455230462078,0.7816700416956222,1.1677103604199073,0.6345598469307485,-0.21836983580953512,1.1679659028208185
10.402000000000001,1,1.6228638498782386,0.792923978343255,1.1702183114830103,-0.0355128400016487,-0.11026527724025971,0.0011038509358055957,1.7949121069220142,-1.509848111283736,0.9449937886055976,4,0.4,0,44,0.6339128266367059,0.7821247723221838,1.16778712354303,1.634455230462078,0.7816700416956222,1.1677103604199073,0.6345598469307485,-0.21836983580953512,1.1679659028208185
10.402000000000001,2,0.6384297724692946,-0.21235728013092126,1.2093584613561714,-0.2977967678109122,0.16600561474481354,0.025274795002432484,-1.8608675678901712,1.3579013483882594,0.18842656305733893,3,0.4,0,41,0.6339128266367059,0.7821247723221838,1.16778712354303,1.634455230462078,0.7816700416956222,1.1677103604199073,0.6345598469307485,-0.21836983580953512,1.1679659028208185
10.603000000000002,0,0.6002890101052979,0.789824540813003,1.1761897782095243,-0.0976693791439396,-0.035471150628343065,-0.0271092461132378,0.41488780814651466,-0.5037830294090695,-0.0035363350855258254,20,0.4,0,47,0.6055125916781565,0.7923903596476951,1.1612774212841441,1.6059635998044088,0.7919767092118064,1.1612516884511366,0.6060678599762104,-0.2080795976260662,1.1614694644305885
10.603000000000002,1,1.5813836312553238,0.798740503032389,1.1761234634990543,-0.20636924688017283,0.028937933776785805,0.029378865751461626,-0.8500318750175309,0.6925532886420158,0.14067171550077592,4,0.4,0,45,0.6055125916781565,0.7923903596476951,1.1612774212841441,1.6059635998044088,0.7919767092118064,1.1612516884511366,0.6060678599762104,-0.2080795976260662,1.1614694644305885
10.603000000000002,2,0.6084161198717315,-0.2033373465404542,1.185147228922418,-0.14932165471424383,0.0448752914948608,-0.12045389270524129,0.7386821547097909,-0.6026384241291166,-0.7250183468043453,5,0.4,0,42,0.6055125916781565,0.7923903596476951,1.1612774212841441,1.6059635998044088,0.7919767092118064,1.1612516884511366,0.6060678599762104,-0.2080795976260662,1.1614694644305885
10.802000000000001,0,0.5637151931757515,0.8053354197563749,1.1622190122327982,-0.1837880247715904,0.07794411529332612,-0.07020485415440361,-0.43275701320427573,0.5699259594053733,-0.21656084442796908,22,0.4,0,48,0.5805300512384702,0.8032485575182567,1.1549357681785382,1.580844176174357,0.8029245664869467,1.1552635066896526,0.5809653094741499,-0.19712664073178612,1.155495008221739
10.802000000000001,1,1.5849745011521008,0.7990291155948241,1.154014372725729,0.018044572345613272,0.00145031438409636,-0.11110095865992478,1.1277076343004335,-0.13812874066678124,-0.7059287658863643,5,0.4,0,46,0.5805300512384702,0.8032485575182567,1.1549357681785382,1.580844176174357,0.8029245664869467,1.1552635066896526,0.5809653094741499,-0.19712664073178612,1.155495008221739
10.802000000000001,2,0.5920413497068173,-0.18875164023702773,1.1729876274066404,-0.08228527721062386,0.07329500654988187,-0.06110352520491237,0.3368662186111559,0.14281263846744266,0.2982430527654722,5,0.4,0,43,0.5805300512384702,0.8032485575182567,1.1549357681785382,1.580844176174357,0.8029245664869467,1.1552635066896526,0.5809653094741499,-0.19712664073178612,1.155495008221739
11.003,0,0.5617705055673576,0.8151913596180337,1.1568242119995036,-0.00967506272832767,0.049034526674919615,-0.026839802155693784,0.8662336420062877,-0.1438287990965507,0.21574652735676667,15,0.4,0,49,0.5587882890977186,0.8143996693098436,1.148678528986506,1.5590917526841943,0.8140950192456292,1.1490412812007418,0.5591702089702411,-0.18593936829434932,1.1494406601335436
11.003,1,1.572158920327003,0.799513643804805,1.1624626380728462,-0.0637591085825766,0.0024105881093577546,0.042031170881179705,-0.40698348720492733,0.004777481220205973,0.7618513907517684,6,0.4,0,47,0.5587882890977186,0.8143996693098436,1.148678528986506,1.5590917526841943,0.8140950192456292,1.1490412812007418,0.5591702089702411,-0.18593936829434932,1.1494406601335436
11.003,2,0.5624705532759646,-0.19473154976148077,1.1539330507697099,-0.147118390203248,-0.02975079365399542,-0.09479888874094862,-0.32255280095833105,-0.5126656726561092,-0.16763862455739534,5,0.4,0,44,0.5587882890977186,0.8143996693098436,1.148678528986506,1.5590917526841943,0.8140950192456292,1.1490412812007418,0.5591702089702411,-0.18593936829434932,1.1494406601335436
11.203000000000001,0,0.5257248882399664,0.8260183079364113,1.1508312931258893,-0.18022808663695472,0.05413474159188773,-0.029964594368071924,-0.8527651195431307,0.025501074584840456,-0.01562396106189062,18,0.4,0,50,0.5399591427732956,0.8255644647889484,1.1422376652123158,1.5402394425351078,0.8252770876979614,1.14255889425787,0.5403069758663196,-0.17473991403992709,1.1431671600570603
11.203000000000001,1,1.5240990930594445,0.8479952758700507,1.147198551271054,-0.24029913633779137,0.24240816032622717,-0.07632043400895976,-0.8827001387760691,1.1999878610843406,-0.5917580244506941,6,0.4,0,48,0.5399591427732956,0.8255644647889484,1.1422376652123158,1.5402394425351078,0.8252770876979614,1.14255889425787,0.5403069758663196,-0.17473991403992709,1.1431671600570603
11.203000000000001,2,0.5375808299142979,-0.17587548281286458,1.1904443361843509,-0.12444861680833297,0.09428033474308045,0.182556427073204,0.1133488669745745,0.6201556419853761,1.3867765790707558,1,0.4,0,45,0.5399591427732956,0.8255644647889484,1.1422376652123158,1.5402394425351078,0.8252770876979614,1.14255889425787,0.5403069758663196,-0.17473991403992709,1.1431671600570603
11.403,0,0.5020390561274479,0.8313015730806902,1.1560122991271724,-0.11842916056259317,0.02641632572139461,0.02590503000641518,0.30899463037180885,-0.1385920793524661,0.2793481218724365,18,0.4,0,51,0.5271455258970724,0.8380075260620099,1.1337384136847366,1.5273973238757135,0.8377374724565688,1.1340193287283744,0.5274966953922482,-0.16230867223790799,1.1345561585995365
11.403,1,1.5255639504048337,0.8389736930311295,1.149360450990672,0.00732428672694632,-0.04510791419460663,0.010809498598088923,1.238117115323693,-1.437580372604174,0.43564966303524494,8,0.4,0,49,0.5271455258970724,0.8380075260620099,1.1337384136847366,1.5273973238757135,0.8377374724565688,1.1340193287283744,0.5274966953922482,-0.16230867223790799,1.1345561585995365
11.403,2,0.5121483457683459,-0.15533310226667663,1.1611940635309264,-0.1271624207297606,0.10271190273094014,-0.1462513632671225,-0.013569019607138265,0.04215783993929857,-1.6440389517016383,7,0.4,0,46,0.5271455258970724,0.8380075260620099,1.1337384136847366,1.5273973238757135,0.8377374724565688,1.1340193287283744,0.5274966953922482,-0.16230867223790799,1.1345561585995365
11.603000000000002,0,0.4721743084158122,0.8300804033008586,1.1532622795507843,-0.14932373855817774,-0.00610584889915774,-0.013750097881939854,-0.154472889977922,-0.1626108731027609,-0.19827563944177412,24,0.4,0,52,0.4870267341647684,0.8402657657802342,1.1382516222145698,1.4872366930476228,0.8400282164908472,1.1385210139462307,0.4873958229048398,-0.160023953922348,1.1389329992334987
11.603000000000002,1,1.4767506389048408,0.8276329546798262,1.1466635071678315,-0.24406655749996323,-0.05670369175651582,-0.013484719114201722,-1.256954221134541,-0.05797888780954566,-0.12147108856145257,9,0.4,0,50,0.4870267341647684,0.8402657657802342,1.1382516222145698,1.4872366930476228,0.8400282164908472,1.1385210139462307,0.4873958229048398,-0.160023953922348,1.1389329992334987
11.603000000000002,2,0.45571140366942064,-0.16401155192452443,1.1156841828479984,-0.28218471049462485,-0.043392248289238815,-0.22754940341463958,-0.775111448824317,-0.7305207551008909,-0.4064902007375833,4,0.4,0,47,0.4870267341647684,0.8402657657802342,1.1382516222145698,1.4872366930476228,0.8400282164908472,1.1385210139462307,0.4873958229048398,-0.160023953922348,1.1389329992334987
11.803,0,0.4227857629386813,0.83500892077979,1.1405199139838873,-0.24694272738565526,0.024642587394657165,-0.06371182783448526,-0.48809494413738935,0.1537421814690751,-0.24980864976272787,25,0.4,0,53,0.4438935303112301,0.8389171722512457,1.1328970877323907,1.4440876310308828,0.8386782223354763,1.1329725194124538,0.4442888352884546,-0.16134408602118325,1.1334446534515108
11.803,1,1.443011816183615,0.8473426243852664,1.140850153908692,-0.1686941136061299,0.0985483485272013,-0.02906676629569848,0.376862219469168,0.7762602014185884,-0.07791023590748407,6,0.4,0,51,0.4438935303112301,0.8389171722512457,1.1328970877323907,1.4440876310308828,0.8386782223354763,1.1329725194124538,0.4442888352884546,-0.16134408602118325,1.1334446534515108
11.803,2,0.4230376972655738,-0.17847224678898943,1.1520634701617736,-0.1633685320192349,-0.07230347432232524,0.18189643656887752,0.5940808923769518,-0.14455613016543264,2.047229199917593,5,0.4,0,48,0.4438935303112301,0.8389171722512457,1.1328970877323907,1.4440876310308828,0.8386782223354763,1.1329725194124538,0.4442888352884546,-0.16134408602118325,1.1334446534515108
12.003,0,0.39291172149210835,0.8347038286097722,1.1359960227280879,-0.14937020723286543,-0.0015254608500892052,-0.022619456278997276,0.4878626007639509,-0.13084024122373233,0.2054618577774406,25,0.4,0,54,0.40499257655452003,0.8404888604553246,1.1256147582974676,1.4051246628434315,0.8402867402965645,1.125739591837963,0.40539242823444716,-0.1597555279207145,1.126053888265157
12.003,1,1.3994608210961648,0.8511342273501623,1.123927028096297,-0.21775497543725175,0.018958014824479518,-0.08461562906197514,-0.2453043091556101,-0.3979516685136103,-0.2777443138313843,7,0.4,0,52,0.40499257655452003,0.8404888604553246,1.1256147582974676,1.4051246628434315,0.8402867402965645,1.125739591837963,0.40539242823444716,-0.1597555279207145,1.126053888265157
12.003,2,0.39743428533015634,-0.15000541427880187,1.159192713412733,-0.1280170596770876,0.14233416255093828,0.035646216254795596,0.17675736171073717,1.0731881843663216,-0.7312511015704122,4,0.4,0,49,0.40499257655452003,0.8404888604553246,1.1256147582974676,1.4051246628434315,0.8402867402965645,1.125739591837963,0.40539242823444716,-0.1597555279207145,1.126053888265157
12.201,0,0.3568437617188651,0.8459885900510251,1.1374912432664854,-0.1821614129961774,0.056993744652792305,0.007551618880796344,-0.16561215031975718,0.29555154294384545,0.15237916747370486,22,0.4,0,55,0.3697035317427356,0.8442102054811922,1.1183891611829813,1.3698245821849904,0.844037769178078,1.1185100471295113,0.37018610005495933,-0.15605525758569347,1.1184459328254812
12.201,1,1.3520140078002867,0.8548883517270832,1.1277797773396272,-0.23963037018120137,0.018960224125863137,0.019458329511768818,-0.11048179163610895,1.1158087796055506e-05,0.5256260534027463,4,0.4,0,53,0.3697035317427356,0.8442102054811922,1.1183891611829813,1.3698245821849904,0.844037769178078,1.1185100471295113,0.37018610005495933,-0.15605525758569347,1.1184459328254812
12.201,2,0.37360548310547415,-0.17933382031460576,1.133325894541715,-0.12034748598324332,-0.14812326280709004,-0.13064049934857405,0.0387352206759811,-1.4669566937274128,-0.8398318969867138,3,0.4,0,50,0.3697035317427356,0.8442102054811922,1.1183891611829813,1.3698245821849904,0.844037769178078,1.1185100471295113,0.37018610005495933,-0.15605525758569347,1.1184459328254812
12.402000000000001,0,0.3378599110175955,0.8527561177679711,1.1293823520648134,-0.09444701841427648,0.03366929212410936,-0.04034274229687617,0.4363900227955259,-0.1160420523815069,-0.23828040386901686,23,0.4,0,56,0.33801008539326044,0.8496198111408654,1.1112491882369118,1.338121342881964,0.8494726317244466,1.1113556979769728,0.3383740046458555,-0.1506124792332694,1.1113816621141759
12.402000000000001,1,1.3206645181421268,0.8545122754546116,1.1238672599540518,-0.15596761023960204,-0.0018710262312020042,-0.01946526062475323,0.41623263652536874,-0.10363806147793576,-0.193649702171751,7,0.4,0,54,0.33801008539326044,0.8496198111408654,1.1112491882369118,1.338121342881964,0.8494726317244466,1.1113556979769728,0.3383740046458555,-0.1506124792332694,1.1113816621141759
12.402000000000001,2,0.33158052757219425,-0.16911883367986524,1.122893895058941,-0.20907938076258573,0.050820829028559666,-0.051900494939174334,-0.44145221283254815,0.989771601172384,0.3917413154696493,4,0.4,0,51,0.33801008539326044,0.8496198111408654,1.1112491882369118,1.338121342881964,0.8494726317244466,1.1113556979769728,0.3383740046458555,-0.1506124792332694,1.1113816621141759
12.602,0,0.3061390112096436,0.8575975087790573,1.126781123268065,-0.15860449903976018,0.024206955055430888,-0.01300614398374205,-0.3207874031274196,-0.04731168534339252,0.13668299156567107,23,0.4,0,57,0.30971215832459525,0.8563255277152355,1.1041493027553562,1.3098142318873645,0.8561997134743875,1.104241410127961,0.3100156235598834,-0.1438779006813107,1.104407757768016
12.602,1,1.3077656429376379,0.8734757893569554,1.1113349457062172,-0.06449437602244447,0.09481756951171905,-0.06266157123917337,0.4573661710857895,0.48344297871460695,-0.21598155307210148,7,0.4,0,55,0.30971215832459525,0.8563255277152355,1.1041493027553562,1.3098142318873645,0.8561997134743875,1.104241410127961,0.3100156235598834,-0.1438779006813107,1.104407757768016
12.602,2,0.2831116711813453,-0.1672063754197708,1.1253863418753027,-0.2423442819542457,0.009562291300472293,0.012462234081808733,-0.16632450595830048,-0.2062926886404376,0.3218136451049165,2,0.4,0,52,0.30971215832459525,0.8563255277152355,1.1041493027553562,1.3098142318873645,0.8561997134743875,1.104241410127961,0.3100156235598834,-0.1438779006813107,1.104407757768016
12.801,0,0.27475804752909727,0.8613621834426531,1.1130004338244308,-0.1576932848268661,0.018917963133647596,-0.06924969569665432,0.0045789658939401285,-0.02657784885318239,-0.2826309131302126,23,0.4,0,58,0.28447825791299697,0.8640532716311637,1.0976407013747789,1.2845935462486204,0.8639236036842715,1.0975742791669303,0.28483702912432185,-0.13620108879005663,1.0974479518642362
12.801,1,1.2739471418858095,0.8793730954309738,1.1127082441911904,-0.16994221634084625,0.02963470388953969,0.006900997411925332,-0.5298886448160898,-0.32755208855366535,0.3495606464879335,9,0.4,0,56,0.28447825791299697,0.8640532716311637,1.0976407013747789,1.2845935462486204,0.8639236036842715,1.0975742791669303,0.28483702912432185,-0.13620108879005663,1.0974479518642362
12.801,2,0.27180074803634074,-0.16127845722333523,1.110061060511892,-0.05683880977389233,0.029788533650430007,-0.0770114641377429,0.9321883024138368,0.10163940879375744,-0.44961657396759647,3,0.4,0,53,0.28447825791299697,0.8640532716311637,1.0976407013747789,1.2845935462486204,0.8639236036842715,1.0975742791669303,0.28483702912432185,-0.13620108879005663,1.0974479518642362
13.002,0,0.26206864448433476,0.8781568285008633,1.1034587080687133,-0.06313135843165414,0.08355544805079658,-0.047471272416505075,0.4704573452498095,0.3215795269509892,0.10835036457785666,29,0.4,0,59,0.2623208614907283,0.8724477682853135,1.0913662292511312,1.2624390998565191,0.8723178279945856,1.0911346775131756,0.2626771798500866,-0.1278034953068141,1.0909117273638496
13.002,1,1.2459224914330531,0.8876148024046486,1.1126695797614115,-0.13942612165550453,0.04100351728196446,-0.00019236034715843338,0.15182136659373952,0.05656126065882956,-0.03529033710986939,9,0.4,0,57,0.2623208614907283,0.8724477682853135,1.0913662292511312,1.2624390998565191,0.8723178279945856,1.0911346775131756,0.2626771798500866,-0.1278034953068141,1.0909117273638496
13.002,2,0.2654902687879297,-0.15253910243338265,1.0936096719748194,-0.0011614200921578333,0.05071531214221172,-0.09105862782296721,0.3008358114842338,0.07199935400766931,-0.09165098167589766,0,0.4,1,53,0.2623208614907283,0.8724477682853135,1.0913662292511312,1.2624390998565191,0.8723178279945856,1.0911346775131756,0.2626771798500866,-0.1278034953068141,1.0909117273638496
13.201,0,0.23725680895846446,0.8841141936368581,1.0968060986558539,-0.12468259058226289,0.029936508221079235,-0.03343019805456982,-0.3093026741236623,-0.26944190869204715,0.07055816262279027,26,0.4,0,60,0.2430092407779762,0.8811640455386395,1.0847248910704772,1.2430711857112273,0.8810762452480275,1.0846452827290718,0.24324786162830425,-0.11903069644206589,1.0844896114408134
13.201,1,1.223022763124472,0.8878822187350435,1.1014376921987816,-0.11507401160091077,0.001343800655250468,-0.05644164604336657,0.12237241233464209,-0.1992950584256986,-0.282659727116624,17,0.4,0,58,0.2430092407779762,0.8811640455386395,1.0847248910704772,1.2430711857112273,0.8810762452480275,1.0846452827290718,0.24324786162830425,-0.11903069644206589,1.0844896114408134
13.201,2,0.2297271740664742,-0.11162091690980014,1.0903058607171956,-0.11311478533879143,0.21606273993597988,0.007314266098997144,-0.5625797248574558,0.8308915969536095,0.4943361503616303,4,0.4,0,54,0.2430092407779762,0.8811640455386395,1.0847248910704772,1.2430711857112273,0.8810762452480275,1.0846452827290718,0.24324786162830425,-0.11903069644206589,1.0844896114408134
13.403,0,0.22040669012134517,0.8935189109792009,1.08810952232323,-0.08341642988672916,0.04655800664526153,-0.04305235808229647,0.2042879242353155,0.08228464566426881,-0.047634455582805185,25,0.4,0,61,0.2284203788874844,0.8913605501898694,1.0780978016551108,1.2284500606474358,0.8913080033463365,1.0782321081838935,0.2285826810687087,-0.10879836721996465,1.0781146679278888
13.403,1,1.2157023092960102,0.8942522269812705,1.0871428465480624,-0.03623987043792863,0.03153469428825259,-0.07076656262732196,0.3902680255593176,0.14945986947030757,-0.07091542863344255,10,0.4,0,59,0.2284203788874844,0.8913605501898694,1.0780978016551108,1.2284500606474358,0.8913080033463365,1.0782321081838935,0.2285826810687087,-0.10879836721996465,1.0781146679278888
13.403,2,0.20688729029401964,-0.09920822716911193,1.0868493317463823,-0.11306873154680473,0.06144895911231788,-0.017111529558481574,0.0002279890692411024,-0.7654147565527823,-0.12091978048256793,6,0.4,0,55,0.2284203788874844,0.8913605501898694,1.0780978016551108,1.2284500606474358,0.8913080033463365,1.0782321081838935,0.2285826810687087,-0.10879836721996465,1.0781146679278888
13.602,0,0.1791005703091726,0.8902416580287448,1.0963616833572045,-0.20756844126719906,-0.016468607791236753,0.04146814589936951,-0.6238794541732161,-0.31671665545979066,0.4247261506616384,26,0.4,0,62,0.18397433278443984,0.8855683535772905,1.0831456002483635,1.184006715450437,0.8855367936009746,1.0832917316283335,0.18408922010882212,-0.11457401093345086,1.0831987721483194
13.602,1,1.1734140910806499,0.8852812856964822,1.091978797862136,-0.21250360912241445,-0.045080106958735,0.024301262884791168,-0.8857474305753062,-0.384999001241144,0.4777277663925286,11,0.4,0,60,0.18397433278443984,0.8855683535772905,1.0831456002483635,1.184006715450437,0.8855367936009746,1.0832917316283335,0.18408922010882212,-0.11457401093345086,1.0831987721483194
13.602,2,0.18338607310378396,-0.10885047939464432,1.0897143694562919,-0.11809656879515426,-0.04845352877151958,0.014397174421656523,-0.025265513810801672,-0.5522738084614952,0.15833519588009104,4,0.4,0,56,0.18397433278443984,0.8855683535772905,1.0831456002483635,1.184006715450437,0.8855367936009746,1.0832917316283335,0.18408922010882212,-0.11457401093345086,1.0831987721483194
13.803,0,0.13624266420108666,0.8824996108440656,1.081227579688846,-0.21322341347306378,-0.038517647684971,-0.07529404810128555,-0.028134190078928895,-0.10969671588922482,-0.5809064378142028,23,0.4,0,63,0.14325071988565533,0.8796497675822921,1.0755024750184217,1.1432914727699885,0.8796440338623865,1.0756254951429831,0.14334989998932193,-0.12046386199242665,1.0755528773303245
13.803,1,1.1362603131134228,0.8761023733743397,1.093452275607655,-0.18484466650361572,-0.04566623045842037,0.007330735052333771,0.1376066796955157,-0.002916037311867507,-0.08443048672864355,10,0.4,0,61,0.14325071988565533,0.8796497675822921,1.0755024750184217,1.1432914727699885,0.8796440338623865,1.0756254951429831,0.14334989998932193,-0.12046386199242665,1.0755528773303245
13.803,2,0.14561010579347744,-0.11610184883334429,1.0829864350283374,-0.1879401358721713,-0.036076464869154,-0.033472310586838756,-0.3474804332189893,0.06157743235007735,-0.23815664183330923,8,0.4,0,57,0.14325071988565533,0.8796497675822921,1.0755024750184217,1.1432914727699885,0.8796440338623865,1.0756254951429831,0.14334989998932193,-0.12046386199242665,1.0755528773303245
14.002,0,0.10452227151982363,0.8849550245019443,1.0829180021100253,-0.1593989581973018,0.012338762099893041,0.008494585031050843,0.2704746496269449,0.25555984816514615,0.4210484077001832,26,0.4,0,64,0.105699944300765,0.8767442487019835,1.0666355603112936,1.1056184603826344,0.8767802450344477,1.0671141264187602,0.10578667097986094,-0.1233450519977631,1.0666792599039103
14.002,1,1.0915069984521204,0.8844453713672692,1.0790369412108651,-0.22489102844875647,0.041924613029796415,-0.07243886631552654,-0.20123799972432552,0.4401549924030998,-0.40085226818020286,12,0.4,0,62,0.105699944300765,0.8767442487019835,1.0666355603112936,1.1056184603826344,0.8767802450344477,1.0671141264187602,0.10578667097986094,-0.1233450519977631,1.0666792599039103
14.002,2,0.1085527399659264,-0.1353413792499829,1.0739378834579731,-0.18621791873141239,-0.09668105737004337,-0.04547010839378951,0.008654357491250774,-0.30454569095924333,-0.06029044124095861,5,0.4,0,58,0.105699944300765,0.8767442487019835,1.0666355603112936,1.1056184603826344,0.8767802450344477,1.0671141264187602,0.10578667097986094,-0.1233450519977631,1.0666792599039103
14.202000000000002,0,0.06715022235227919,0.8850102605332916,1.067175706377299,-0.1868602458377212,0.0002761801567363594,-0.07871147866363074,-0.13730643820209634,-0.06031290971578309,-0.43603031847340556,19,0.4,0,65,0.07120682752149055,0.8762083538417775,1.0582018793203642,1.0711810241440924,0.8762646743605434,1.0587220941385345,0.07128333000180376,-0.12386023985062355,1.0582397720239194
14.202000000000002,1,1.065681620637267,0.885059744646262,1.0730188520978183,-0.1291268890742657,0.0030718663949641347,-0.030090445565234943,0.4788206968724513,-0.19426373317416035,0.21174210375145686,12,0.4,0,63,0.07120682752149055,0.8762083538417775,1.0582018793203642,1.0711810241440924,0.8762646743605434,1.0587220941385345,0.07128333000180376,-0.12386023985062355,1.0582397720239194
14.202000000000002,2,0.09215024637071662,-0.09057523159640479,1.0648586606009443,-0.08201246797604851,0.22383073826788938,-0.04539611428514421,0.5210272537768166,1.6025589781896552,0.0003699705432265077,2,0.4,0,59,0.07120682752149055,0.8762083538417775,1.0582018793203642,1.0711810241440924,0.8762646743605434,1.0587220941385345,0.07128333000180376,-0.12386023985062355,1.0582397720239194
14.402000000000001,0,0.03532722722777748,0.8780128537713626,1.0759451646238332,-0.1591149756225091,-0.034987033809644866,0.043847291232670546,0.13872635107606107,-0.17631606983190676,0.6127938494815086,24,0.4,0,66,0.03965453972885423,0.8777177140509189,1.0507889883020123,1.0396867686466926,0.8777787764152145,1.051218612095179,0.03971935662046874,-0.1223351306266944,1.0508218182943305
14.402000000000001,1,1.030348463191706,0.8706726019121054,1.0695826895135558,-0.1766657872278061,-0.07193571367078347,-0.017180812921311968,-0.23769449076770283,-0.37503790032873935,0.06454816321961511,14,0.4,0,64,0.03965453972885423,0.8777177140509189,1.0507889883020123,1.0396867686466926,0.8777787764152145,1.051218612095179,0.03971935662046874,-0.1223351306266944,1.0508218182943305
14.402000000000001,2,0.04959948471266051,-0.11506177940086615,1.0601749836148602,-0.21275380829028126,-0.12243273902230721,-0.023418384930421005,-0.653706701571166,-1.731317386450989,0.10988864677361641,4,0.4,0,60,0.03965453972885423,0.8777177140509189,1.0507889883020123,1.0396867686466926,0.8777787764152145,1.051218612095179,0.03971935662046874,-0.1223351306266944,1.0508218182943305
14.602,0,0.010672176307317816,0.8800936951538082,1.0577325971081921,-0.12327525460229877,0.010404206912227912,-0.09106283757820498,0.17919860510105226,0.2269562036093647,-0.67455064405438,20,0.4,0,67,0.011350520888353022,0.880792377114701,1.0432730872585971,1.01142208459454,0.8808526232867263,1.043609744580035,0.011409003042597048,-0.11924542757183286,1.0433012956083223
14.602,1,0.9921316438827552,0.8955035199343491,1.0567463970232547,-0.1910840965447545,0.12415459011121888,-0.06418146245150547,-0.07209154658474226,0.9804515189100153,-0.23500324765096833,19,0.4,0,65,0.011350520888353022,0.880792377114701,1.0432730872585971,1.01142208459454,0.8808526232867263,1.043609744580035,0.011409003042597048,-0.11924542757183286,1.0433012956083223
14.602,2,0.01805654132477763,-0.09467083743539151,1.0603819695102086,-0.15771471693941497,0.10195470982737356,0.0010349294767420007,0.27519545675433243,1.1219372442484077,0.12226657203581547,1,0.4,0,61,0.011350520888353022,0.880792377114701,1.0432730872585971,1.01142208459454,0.8808526232867263,1.043609744580035,0.011409003042597048,-0.11924542757183286,1.0433012956083223
14.803,0,-0.016141674088019364,0.8920277049756807,1.0453881907069584,-0.13340224077282145,0.05937318319339556,-0.06141495722006794,-0.050383015773744565,0.24362674766750012,0.1475018923290396,21,0.4,0,68,-0.014101301401882736,0.885199727620258,1.036385429849039,0.9859941895778177,0.8852547993858665,1.0366456831590594,-0.014047933810593053,-0.11482584445141568,1.036410747795589
14.803,1,0.9738204761717548,0.8858793911400945,1.0437686491967244,-0.09110033687064902,-0.04788123778236088,-0.06456590958472756,0.4974316401696778,-0.8558996412615886,-0.001912672304587538,15,0.4,0,66,-0.014101301401882736,0.885199727620258,1.036385429849039,0.9859941895778177,0.8852547993858665,1.0366456831590594,-0.014047933810593053,-0.11482584445141568,1.036410747795589
14.803,2,-0.007277435805079557,-0.0945476486002943,1.0523845909052265,-0.1260396872132195,0.0006128797766030327,-0.03978795325861658,0.1575872125681362,-0.5041882092078123,-0.20309891908138547,7,0.4,0,62,-0.014101301401882736,0.885199727620258,1.036385429849039,0.9859941895778177,0.8852547993858665,1.0366456831590594,-0.014047933810593053,-0.11482584445141568,1.036410747795589
15.002,0,-0.04553056083977303,0.9068839379542794,1.0421126590309333,-0.14768284799876225,0.07465443707838507,-0.016459958170981087,-0.07176184535648646,0.07679022052758552,0.2259045178346075,18,0.4,0,69,-0.036651184887982316,0.8905290347943121,1.0293479005161223,0.9634569779910673,0.8905772158028129,1.0295489986690258,-0.03660168420941362,-0.10948678035731664,1.029370616528011
15.002,1,0.9595260356934334,0.8934679229493621,1.0459351858857742,-0.07183135918754478,0.038133325674711345,0.010887119040450498,0.09682903358343843,0.43223398722146883,0.37916094786521665,16,0.4,0,67,-0.036651184887982316,0.8905290347943121,1.0293479005161223,0.9634569779910673,0.8905772158028129,1.0295489986690258,-0.03660168420941362,-0.10948678035731664,1.029370616528011
15.002,2,-0.02512749496054989,-0.10067824904799072,1.049621088237997,-0.08969878972598164,-0.03080703742561018,-0.013886948076529997,0.18261757531275327,-0.1578890311669007,0.13015580493510856,7,0.4,0,63,-0.036651184887982316,0.8905290347943121,1.0293479005161223,0.9634569779910673,0.8905772158028129,1.0295489986690258,-0.03660168420941362,-0.10948678035731664,1.029370616528011
15.202000000000002,0,-0.06649371356512634,0.8943302585007691,1.036727334706582,-0.10481576362676603,-0.06276839726755101,-0.026926621621756044,0.21433542185997992,-0.6871141717296767,-0.0523333172538745,17,0.4,0,70,-0.056599037300022706,0.896545107625058,1.022358791419798,0.943514112203175,0.8965858650886911,1.0225148244928097,-0.05655257032795877,-0.10346305676127539,1.022379067413604
15.202000000000002,1,0.9371636519546943,0.9026437140993957,1.0386990236345963,-0.11181191869369468,0.04587895575016796,-0.036180811255889594,-0.19990279753074844,0.038728150377282874,-0.23533965148169922,19,0.4,0,68,-0.056599037300022706,0.896545107625058,1.022358791419798,0.943514112203175,0.8965858650886911,1.0225148244928097,-0.05655257032795877,-0.10346305676127539,1.022379067413604
15.202000000000002,2,-0.03429522710632216,-0.10433306156129074,1.0326014186421415,-0.04583866072886109,-0.018274062566500007,-0.08509834797927783,0.21930064498560156,0.06266487429555054,-0.35605699951373726,6,0.4,0,64,-0.056599037300022706,0.896545107625058,1.022358791419798,0.943514112203175,0.8965858650886911,1.0225148244928097,-0.05655257032795877,-0.10346305676127539,1.022379067413604
15.402000000000001,0,-0.07734565542808547,0.905833406617065,1.0299464308695712,-0.05425970931479582,0.05751574058147988,-0.03390451918505411,0.252780271559852,0.6014206892451566,-0.03488948781649046,21,0.4,0,71,-0.07320204633535271,0.9036908078986237,1.0176572652827256,0.9269087753223211,0.9037243596970828,1.0177887999101034,-0.07315799110161261,-0.09631226437386864,1.0176755904731227
15.402000000000001,1,0.9080983207992879,0.9093854304245487,1.03784424859815,-0.14532665577703271,0.03370858162576496,-0.004273875182230784,-0.16757368541669077,-0.06085187062201521,0.15953468036829463,15,0.4,0,69,-0.07320204633535271,0.9036908078986237,1.0176572652827256,0.9269087753223211,0.9037243596970828,1.0177887999101034,-0.07315799110161261,-0.09631226437386864,1.0176755904731227
15.402000000000001,2,-0.05386914347174765,-0.08583269560956652,1.0267331234918686,-0.09786958182712781,0.09250182975862142,-0.029341475751363914,-0.2601546054913345,0.5538794616256091,0.27878436113957056,4,0.4,0,65,-0.07320204633535271,0.9036908078986237,1.0176572652827256,0.9269087753223211,0.9037243596970828,1.0177887999101034,-0.07315799110161261,-0.09631226437386864,1.0176755904731227
15.603000000000002,0,-0.1268428451002973,0.8950523466969246,1.040671853535443,-0.24625467498612794,-0.05363711403054934,0.053360311770505986,-0.9551988341857295,-0.552999276676761,0.4341533878386063,17,0.4,0,72,-0.11823333860085428,0.891845260013845,1.0227302741937316,0.8818744512764681,0.891888653533921,1.0228380544443563,-0.1181377941578826,-0.10815043477074815,1.0224811686944861
15.603000000000002,1,0.8541432473293438,0.8926181017171028,1.0297099747330207,-0.2684332013430045,-0.08341954580818838,-0.040469024204623415,-0.6124703759501069,-0.5827270021589703,-0.18007536827060966,18,0.4,0,70,-0.11823333860085428,0.891845260013845,1.0227302741937316,0.8818744512764681,0.891888653533921,1.0228380544443563,-0.1181377941578826,-0.10815043477074815,1.0224811686944861
15.603000000000002,2,-0.11945158101502773,-0.08070795034104483,1.0310335445535777,-0.3262807837974125,0.025496245117023274,0.021395129660244407,-1.1363741391556423,-0.3333611176198904,0.2524209224458119,5,0.4,0,66,-0.11823333860085428,0.891845260013845,1.0227302741937316,0.8818744512764681,0.891888653533921,1.0228380544443563,-0.1181377941578826,-0.10815043477074815,1.0224811686944861
15.801,0,-0.15931161994447607,0.8799488740357821,1.0356119289799541,-0.1639837113342373,-0.07628016495526531,-0.02555517452267012,0.41550991743379395,-0.11435884305412185,-0.39856306208675074,20,0.4,0,73,-0.15780409062624975,0.8817271860832111,1.0161242258826617,0.842326624282844,0.8817808528494223,1.0161134857506273,-0.15748690394469714,-0.11826497295126788,1.0151334432744488
15.801,1,0.8409022626056396,0.8856505952807828,1.0200250109777578,-0.06687366022072884,-0.03518942644606053,-0.04891395835991425,1.0179774804155408,0.2435864614248898,-0.04265118260247927,20,0.4,0,71,-0.15780409062624975,0.8817271860832111,1.0161242258826617,0.842326624282844,0.8817808528494223,1.0161134857506273,-0.15748690394469714,-0.11826497295126788,1.0151334432744488
15.801,2,-0.1522297826599076,-0.11414682377012242,1.0369540157442092,-0.16554647295393993,-0.16888319913675667,0.029901369649654494,0.8117894487044125,-0.9817143649180874,0.04296080802732397,4,0.4,0,67,-0.15780409062624975,0.8817271860832111,1.0161242258826617,0.842326624282844,0.8817808528494223,1.0161134857506273,-0.15748690394469714,-0.11826497295126788,1.0151334432744488
16.003,0,-0.19531635590600605,0.864331644022519,1.0188912419275087,-0.17824126713628705,-0.0773130198676391,-0.08277567847745274,-0.07058195941608782,-0.005113143130563305,-0.28326982155832986,12,0.4,0,74,-0.1945183263074802,0.8747622421354079,1.0088212859357841,0.8057875065284046,0.8748195022634006,1.0082692166633087,-0.19405510576050802,-0.1252386180049083,1.0070368953935878
16.003,1,0.7993406421232072,0.8844315955853245,1.023883452754987,-0.20575059644768542,-0.006034651957714634,0.019101196916976045,-0.6875095852819634,0.14433056677398962,0.336708689489556,24,0.4,0,72,-0.1945183263074802,0.8747622421354079,1.0088212859357841,0.8057875065284046,0.8748195022634006,1.0082692166633087,-0.19405510576050802,-0.1252386180049083,1.0070368953935878
16.003,2,-0.179581532636649,-0.1481558194803092,1.0260832264265902,-0.13540470285515543,-0.1683613649019148,-0.05381578870108461,0.149216683657349,0.002583337796246867,-0.414441377973956,6,0.4,0,68,-0.1945183263074802,0.8747622421354079,1.0088212859357841,0.8057875065284046,0.8748195022634006,1.0082692166633087,-0.19405510576050802,-0.1252386180049083,1.0070368953935878
16.202,0,-0.23776830975890328,0.8628286430452422,1.0012189572868446,-0.21332640127083866,-0.007552768730034346,-0.08880545045559757,-0.17630720670628805,0.3505540258171065,-0.030300361699220017,11,0.4,0,75,-0.22780768935766646,0.8703922925866099,1.0008028597467775,0.7724119575238981,0.8704349225422988,1.0002082966400512,-0.2275783300519583,-0.12963222442404868,0.9991237429815087
16.202,1,0.7583938847179421,0.8817694609488411,1.010793927264711,-0.20576260002645555,-0.013377560987353402,-0.06577651000138572,-6.031949130716327e-05,-0.036899040349943256,-0.42652114029327176,26,0.4,0,73,-0.22780768935766646,0.8703922925866099,1.0008028597467775,0.7724119575238981,0.8704349225422988,1.0002082966400512,-0.2275783300519583,-0.12963222442404868,0.9991237429815087
16.202,2,-0.22359322134984239,-0.1357773415875203,1.0050558166664947,-0.22116426489041724,0.06220340649642611,-0.1056653756788712,-0.4309525730415131,1.1586169417001961,-0.26055068833058376,4,0.4,0,69,-0.22780768935766646,0.8703922925866099,1.0008028597467775,0.7724119575238981,0.8704349225422988,1.0002082966400512,-0.2275783300519583,-0.12963222442404868,0.9991237429815087
16.402,0,-0.2565950712522591,0.8811638372772744,1.0207623315807053,-0.09413380746677946,0.09167597116016145,0.0977168714693031,0.5959629690202981,0.4961436994509807,0.9326116096245065,12,0.4,0,76,-0.25838354947104214,0.8682037477133567,0.9933965120190019,0.7417579241113202,0.8682396110644673,0.9928803233860366,-0.25832143918390366,-0.1318345553684369,0.9918814774221514
16.402,1,0.7348554293676526,0.8770284813069209,1.0120785894073794,-0.11769227675144808,-0.023704898209601172,0.0064233107133415904,0.4403516163750389,-0.05163668611123903,0.36099910357363785,25,0.4,0,74,-0.25838354947104214,0.8682037477133567,0.9933965120190019,0.7417579241113202,0.8682396110644673,0.9928803233860366,-0.25832143918390366,-0.1318345553684369,0.9918814774221514
16.402,2,-0.28668978189603156,-0.15302904201777778,1.0186924096388676,-0.315482802730947,-0.08625850215128769,0.06818296486186505,-0.47159268920265035,-0.7423095432385717,0.8692417027036844,1,0.4,0,70,-0.25838354947104214,0.8682037477133567,0.9933965120190019,0.7417579241113202,0.8682396110644673,0.9928803233860366,-0.25832143918390366,-0.1318345553684369,0.9918814774221514
16.602,0,-0.2834595488943048,0.8737199429453468,0.9953305792965249,-0.13432238821022893,-0.03721947165963815,-0.12715876142090232,-0.20094290371724807,-0.6444772140990003,-1.124378164451031,13,0.4,0,77,-0.2859038995304031,0.8677702313696914,0.985561093059714,0.7141761387377834,0.8678085424753891,0.9851518401562931,-0.28597871289377735,-0.13224831564056613,0.9842963939422601
16.602,1,0.7066579245627337,0.8671578648094704,0.995957890270661,-0.14098752402459525,-0.049353082487252516,-0.08060349568359217,-0.11647623636573623,-0.12824092138825718,-0.4351340319846704,24,0.4,0,75,-0.2859038995304031,0.8677702313696914,0.985561093059714,0.7141761387377834,0.8678085424753891,0.9851518401562931,-0.28597871289377735,-0.13224831564056613,0.9842963939422601
16.602,2,-0.2834596589921913,-0.11139889437720729,1.0120038315023878,0.01615061451920147,0.2081507382028532,-0.03344289068239981,1.658167086250748,1.4720462017707097,-0.5081292777213262,3,0.4,0,71,-0.2859038995304031,0.8677702313696914,0.985561093059714,0.7141761387377834,0.8678085424753891,0.9851518401562931,-0.28597871289377735,-0.13224831564056613,0.9842963939422601
16.802,0,-0.3190065585149733,0.8671744263797586,0.9873592394013802,-0.17773504810334304,-0.0327275828279412,-0.03985669947572393,-0.2170632994655713,0.022459444158484814,0.4365103097258935,10,0.4,0,78,-0.3107630971290281,0.8688052626713733,0.9778634521282769,0.6892760477822036,0.8688497960757656,0.9775484806697544,-0.31093385388757583,-0.13118004081992862,0.9768656327988204
16.802,1,0.6827426883905272,0.876388254055956,0.992939050097212,-0.11957618086103254,0.046151946232427965,-0.015094200867245054,0.1070567158178139,0.4775251435984041,0.3275464740817367,23,0.4,0,76,-0.3107630971290281,0.8688052626713733,0.9778634521282769,0.6892760477822036,0.8688497960757656,0.9775484806697544,-0.31093385388757583,-0.13118004081992862,0.9768656327988204
16.802,2,-0.2919702006155047,-0.13715506922912257,0.9901169787039898,-0.04255270811656735,-0.12878087425957685,-0.10943426399198969,-0.29351661317884514,-1.6846580623121563,-0.37995686654795074,3,0.4,0,72,-0.3107630971290281,0.8688052626713733,0.9778634521282769,0.6892760477822036,0.8688497960757656,0.9775484806697544,-0.31093385388757583,-0.13118004081992862,0.9768656327988204
17.002000000000002,0,-0.3328441525861673,0.8749318437373552,0.9782240136878454,-0.06918797035596903,0.03878708678798249,-0.04567612856767313,0.5427353887368623,0.3575733480796134,-0.029097145459745583,12,0.4,0,79,-0.33309904666188445,0.8710309712515528,0.9705072409607511,0.6668719695686419,0.8711014065452475,0.970507223672642,-0.3333198927667538,-0.12891925590009826,0.9697295613084309
17.002000000000002,1,0.6540520102424219,0.8797709178211216,0.9792542972615168,-0.14345339074052463,0.016913318825827788,-0.06842376417847532,-0.11938604939745874,-0.1461931370329988,-0.2666478165561475,32,0.4,0,77,-0.33309904666188445,0.8710309712515528,0.9705072409607511,0.6668719695686419,0.8711014065452475,0.970507223672642,-0.3333198927667538,-0.12891925590009826,0.9697295613084309
17.002000000000002,2,-0.3268968167720826,-0.15192166261171236,0.9996962619666112,-0.17463308078288695,-0.07383296691294788,0.047896416313106135,-0.6604018633315887,0.27473953673314094,0.786653401525468,3,0.4,0,73,-0.33309904666188445,0.8710309712515528,0.9705072409607511,0.6668719695686419,0.8711014065452475,0.970507223672642,-0.3333198927667538,-0.12891925590009826,0.9697295613084309
17.203,0,-0.35467419506415965,0.8773153890289032,0.9934708716968816,-0.10860717650742632,0.011858434286308336,0.07585501497033045,-0.19611545348984022,-0.1339733955307192,0.6046325549154499,7,0.4,0,80,-0.3529506296491989,0.874437446421998,0.9638000665990291,0.6470227695451549,0.874517780915503,0.9639442777099106,-0.35318938132499833,-0.12548110084645123,0.9631939444382115
17.203,1,0.6474324966172752,0.8817726110528472,0.9769872189781872,-0.03293290360769555,0.009958672794654925,-0.011278996434475318,0.5498531698150784,-0.034600229010810786,0.2843023270845814,30,0.4,0,78,-0.3529506296491989,0.874437446421998,0.9638000665990291,0.6470227695451549,0.874517780915503,0.9639442777099106,-0.35318938132499833,-0.12548110084645123,0.9631939444382115
17.203,2,-0.3601501087531287,-0.11144518744732634,0.9998785593037025,-0.16543926358729652,0.20137549833028173,0.000906951925827087,0.0457403840576645,1.3691963444937003,-0.2337784297874615,1,0.4,0,74,-0.3529506296491989,0.874437446421998,0.9638000665990291,0.6470227695451549,0.874517780915503,0.9639442777099106,-0.35318938132499833,-0.12548110084645123,0.9631939444382115
17.403000000000002,0,-0.38885076455343515,0.8825177560870845,0.9724680271931644,-0.17088284744637508,0.0260118352909063,-0.1050142225185845,-0.31137835469473935,0.07076700502298881,-0.9043461874445619,14,0.4,0,81,-0.37818891478202465,0.8714056206482897,0.9656013812737135,0.6218052924138585,0.8714901817633073,0.9657482394163819,-0.37844496770770164,-0.12850140495012202,0.965128565060799
17.403000000000002,1,0.609892229741702,0.8759309469290802,0.9730856882730599,-0.18770133437786327,-0.02920832061883441,-0.01950765352563638,-0.7738421538508276,-0.1958349670674439,-0.04114328545580473,28,0.4,0,79,-0.37818891478202465,0.8714056206482897,0.9656013812737135,0.6218052924138585,0.8714901817633073,0.9657482394163819,-0.37844496770770164,-0.12850140495012202,0.965128565060799
17.403000000000002,2,-0.3885267456775682,-0.13751021644549133,0.9816675649984707,-0.14188318462219537,-0.13032514499082307,-0.09105497152615698,0.11778039482550405,-1.6585032166055005,-0.45980961725991376,4,0.4,0,75,-0.37818891478202465,0.8714056206482897,0.9656013812737135,0.6218052924138585,0.8714901817633073,0.9657482394163819,-0.37844496770770164,-0.12850140495012202,0.965128565060799
17.603,0,-0.4237442438539799,0.8443028862509856,0.9820228304553558,-0.17446739650272441,-0.19107434918049515,0.04777401631095707,-0.017922745281746734,-1.085430922357011,0.7639411941477106,14,0.4,0,82,-0.4213158312306331,0.8535765545811113,0.9656031713896882,0.5786885051938154,0.8536827332790784,0.9657274064410934,-0.42158722743579236,-0.14633841511092113,0.9650443753865077
17.603,1,0.5701733785744243,0.8494212627835486,0.9752396608804446,-0.19859425583638965,-0.13254842072765885,0.010769863036923549,-0.05446460729263211,-0.5167005005441241,0.15138758281280018,22,0.4,0,80,-0.4213158312306331,0.8535765545811113,0.9656031713896882,0.5786885051938154,0.8536827332790784,0.9657274064410934,-0.42158722743579236,-0.14633841511092113,0.9650443753865077
17.603,2,-0.44342308681526643,-0.15539211670080566,0.9730480504535044,-0.2744817056884923,-0.08940950127657198,-0.04309757272483215,-0.6629926053314869,0.2045782185712562,0.23978699400662498,3,0.4,0,76,-0.4213158312306331,0.8535765545811113,0.9656031713896882,0.5786885051938154,0.8536827332790784,0.9657274064410934,-0.42158722743579236,-0.14633841511092113,0.9650443753865077
17.802,0,-0.4672624306830182,0.8362589369561151,0.9821203105876265,-0.2186843559248177,-0.04042185575311854,0.000489849910908211,-0.22219577599042065,0.7570477056652164,-0.23760887638215736,8,0.4,0,83,-0.45890055963036425,0.840520645974695,0.9599162754064905,0.5411137252787322,0.8406403331429476,0.9600152608238891,-0.45930221668091603,-0.15934762315018755,0.9598250153375187
17.802,1,0.5288349499842457,0.8511221738459137,0.9799341917568114,-0.20773079693557273,0.00854729177067918,0.023590607418929085,-0.045912266830066155,0.7090236808961778,0.0644258511658576,30,0.4,0,81,-0.45890055963036425,0.840520645974695,0.9599162754064905,0.5411137252787322,0.8406403331429476,0.9600152608238891,-0.45930221668091603,-0.15934762315018755,0.9598250153375187
17.802,2,-0.4551291692898617,-0.16929380907530156,0.9785096791032419,-0.05882453504821795,-0.06985775062560821,0.027445370099183873,1.083704375076766,0.09825000327117564,0.3544871498694307,3,0.4,0,77,-0.45890055963036425,0.840520645974695,0.9599162754064905,0.5411137252787322,0.8406403331429476,0.9600152608238891,-0.45930221668091603,-0.15934762315018755,0.9598250153375187
18.002000000000002,0,-0.4691234208387849,0.8272702779554402,0.9763370480900467,-0.009304950778833289,-0.044943295003373934,-0.028916312487898423,1.046897025729907,-0.022607196251276652,-0.14703081199403106,7,0.4,0,84,-0.4934998482956545,0.8306133382981898,0.9538651465703476,0.5065532658908237,0.8307391910361376,0.953797168457716,-0.493856429110677,-0.16922725211965345,0.9537971724546253
18.002000000000002,1,0.4915210881463852,0.8396200828397394,0.9700629524429119,-0.18656930918929998,-0.05751045503087056,-0.04935619656949732,0.10580743873136222,-0.330288734007744,-0.36473401994212684,33,0.4,0,82,-0.4934998482956545,0.8306133382981898,0.9538651465703476,0.5065532658908237,0.8307391910361376,0.953797168457716,-0.493856429110677,-0.16922725211965345,0.9537971724546253
18.002000000000002,2,-0.5041902395449862,-0.17081293563143385,0.9594355915995205,-0.2453053512756191,-0.007595632780661336,-0.09537043751860544,-0.9324040811369925,0.31131058922473,-0.6140790380889378,3,0.4,0,78,-0.4934998482956545,0.8306133382981898,0.9538651465703476,0.5065532658908237,0.8307391910361376,0.953797168457716,-0.493856429110677,-0.16922725211965345,0.9537971724546253
18.201,0,-0.5244111396731492,0.8289292204248732,0.9755462241640331,-0.2778277328360044,0.00833639431875882,-0.003973989577958082,-1.3493607138551444,0.2677371322720265,0.12533830608010343,11,0.4,0,85,-0.5251931284786993,0.8234023046012311,0.948298251112028,0.47505879727976363,0.8235267831100057,0.9474690302952203,-0.5254119050254911,-0.17640501618191337,0.9479053081145331
18.201,1,0.45308943498448506,0.8283433473317913,0.9505288509678146,-0.19312388523568064,-0.056667012602755154,-0.09816131394521334,-0.032937568072264924,0.004238404161383981,-0.2452518461091281,24,0.4,0,83,-0.5251931284786993,0.8234023046012311,0.948298251112028,0.47505879727976363,0.8235267831100057,0.9474690302952203,-0.5254119050254911,-0.17640501618191337,0.9479053081145331
18.201,2,-0.537553992105096,-0.14752045475534992,0.9494340442344074,-0.16765704804075449,0.11704764259338774,-0.05025903198549404,0.3901924785671626,0.626348117457539,0.2266904800658886,4,0.4,0,79,-0.5251931284786993,0.8234023046012311,0.948298251112028,0.47505879727976363,0.8235267831100057,0.9474690302952203,-0.5254119050254911,-0.17640501618191337,0.9479053081145331
18.403000000000002,0,-0.568952165835735,0.8326735673158667,0.9611859400254128,-0.22050012951774967,0.01853637074749274,-0.07109051553772357,0.2838000164270013,0.05049493281551403,-0.3322600295037867,8,0.4,0,86,-0.5535856313234183,0.8184728189097458,0.9417151882738496,0.44655581484459994,0.8185723389542621,0.9408498217583818,-0.5538133077954525,-0.18132654437113885,0.9413045635144541
18.403000000000002,1,0.43098029520805126,0.8226640151585137,0.9552331788497817,-0.10945118701204765,-0.028115505808304415,0.02328875189092613,0.41422127833481326,0.14134409304183412,0.6012379496838536,28,0.4,0,84,-0.5535856313234183,0.8184728189097458,0.9417151882738496,0.44655581484459994,0.8185723389542621,0.9408498217583818,-0.5538133077954525,-0.18132654437113885,0.9413045635144541
18.403000000000002,2,-0.534940369796326,-0.1823846239547129,0.9381188409584771,0.012938724300841706,-0.17259489702654787,-0.05601585780163427,0.8940384769385873,-1.4338739585145204,-0.028499137703664235,3,0.4,0,80,-0.5535856313234183,0.8184728189097458,0.9417151882738496,0.44655581484459994,0.8185723389542621,0.9408498217583818,-0.5538133077954525,-0.18132654437113885,0.9413045635144541
18.602,0,-0.5928839127657972,0.8358436758496282,0.9548894011808009,-0.12026003482443419,0.01593019363699226,-0.031640898716643294,0.5037190688106354,-0.013096367389449783,0.19823928050794298,6,0.4,0,87,-0.5792433524576925,0.8154073762511622,0.9348597891435223,0.42080671748623594,0.8154964827714106,0.9341447468534853,-0.5794720240657133,-0.1843840904211234,0.9345057459563375
18.602,1,0.4148706163802854,0.8215571300598352,0.9465089807825384,-0.0809531599385229,-0.005562236676776495,-0.04384019129267996,0.14320616619861823,0.11333301071119668,-0.3373313727819434,22,0.4,0,85,-0.5792433524576925,0.8154073762511622,0.9348597891435223,0.42080671748623594,0.8154964827714106,0.9341447468534853,-0.5794720240657133,-0.1843840904211234,0.9345057459563375
18.602,2,-0.5277278286112799,-0.20148921828390698,0.9491945190078244,0.03624392555299586,-0.09600298657886572,0.05565667361481072,0.1171115640811778,0.384883972098909,0.5611684995801309,2,0.4,0,81,-0.5792433524576925,0.8154073762511622,0.9348597891435223,0.42080671748623594,0.8154964827714106,0.9341447468534853,-0.5794720240657133,-0.1843840904211234,0.9345057459563375
18.801000000000002,0,-0.5966544649644876,0.7932559162384066,0.94401349175666,-0.01894749848588115,-0.21400884226744307,-0.05465281117658646,0.509108222806795,-1.1554725422333338,-0.11563775105498986,6,0.4,0,88,-0.6023612697452596,0.8138830076383285,0.9281144591867366,0.39763017227312114,0.813972129235461,0.9275567219605964,-0.6025700649679326,-0.18590213795948485,0.9277632252035573
18.801000000000002,1,0.38595521977706154,0.8205964345354031,0.9447030470464144,-0.14530350051871152,-0.0048276157006638815,-0.00907504390012125,-0.32336854562908596,0.003691562694033204,0.17469923312843427,24,0.4,0,86,-0.6023612697452596,0.8138830076383285,0.9281144591867366,0.39763017227312114,0.813972129235461,0.9275567219605964,-0.6025700649679326,-0.18590213795948485,0.9277632252035573
18.801000000000002,2,-0.5541778871240453,-0.1777038679306049,0.9777252088015426,-0.13291486689831744,0.1195243736346829,0.14337030047094457,-0.8500441831724217,1.0830520613746073,0.4407719942519253,2,0.4,0,82,-0.6023612697452596,0.8138830076383285,0.9281144591867366,0.39763017227312114,0.813972129235461,0.9275567219605964,-0.6025700649679326,-0.18590213795948485,0.9277632252035573
19.002000000000002,0,-0.6190338525190455,0.812595676284152,0.9333821401804235,-0.11134023658984016,0.09621771167037456,-0.0528922963991865,-0.4596653637012874,1.5434156912329196,0.008758779987064463,12,0.4,0,89,-0.6231631678005422,0.8136539830504733,0.9220960844498932,0.376794794969384,0.8137473803719558,0.921668086209545,-0.6233292294451445,-0.1861424490483196,0.9215753373168113
19.002000000000002,1,0.3698735257125386,0.8177188680221339,0.9306138104249071,-0.08000842818170602,-0.014316251309796994,-0.07009570458461323,0.3248511061542554,-0.047207142333995464,-0.3035853765397603,29,0.4,0,87,-0.6231631678005422,0.8136539830504733,0.9220960844498932,0.376794794969384,0.8137473803719558,0.921668086209545,-0.6233292294451445,-0.1861424490483196,0.9215753373168113
19.002000000000002,2,-0.6438089630763899,-0.1940592921886346,0.9277651789912786,-0.4459257510066887,-0.08137026994044615,-0.2485573622401184,-1.5572680801411465,-0.9994758386822314,-1.9498888692092633,3,0.4,0,83,-0.6231631678005422,0.8136539830504733,0.9220960844498932,0.376794794969384,0.8137473803719558,0.921668086209545,-0.6233292294451445,-0.1861424490483196,0.9215753373168113
19.203000000000003,0,-0.6476007837450855,0.806321047766255,0.9353062099556282,-0.14212403595044704,-0.03121705730296983,0.009572486443804486,-0.15315323064978506,-0.6340038257380302,0.31077006389547673,9,0.4,0,90,-0.642777151038474,0.8120973023119126,0.9189021697960383,0.35715800473569137,0.8121860981842935,0.9185746916895575,-0.642954331598689,-0.18770520610667743,0.9184276813596253
19.203000000000003,1,0.34754101656916786,0.8114309106648354,0.9292450771378387,-0.1111070106635357,-0.031283369936808275,-0.006809618343623487,-0.15471931582999804,-0.08441352550751859,0.3148561504526845,19,0.4,0,88,-0.642777151038474,0.8120973023119126,0.9189021697960383,0.35715800473569137,0.8121860981842935,0.9185746916895575,-0.642954331598689,-0.18770520610667743,0.9184276813596253
19.203000000000003,2,-0.6287297976195039,-0.19130380136723324,0.9370705571453526,0.07502072366609948,0.013708909559210726,0.046295413701860334,2.5917735058347606,0.4730307437793862,1.466929233542179,3,0.4,0,84,-0.642777151038474,0.8120973023119126,0.9189021697960383,0.35715800473569137,0.8121860981842935,0.9185746916895575,-0.642954331598689,-0.18770520610667743,0.9184276813596253
19.402,0,-0.6977922092104971,0.7895878261121898,0.9392591561359209,-0.25221821841915654,-0.08408654097520288,0.019864051157250134,-0.5532370978327165,-0.26567579734790736,0.05171640559520476,6,0.4,0,91,-0.6846154526756015,0.7877846139704573,0.925256596725461,0.31527960676878447,0.7878755358203189,0.9249969457791435,-0.6848330318106426,-0.21202239316512214,0.9248637917366167
19.402,1,0.3084848222489694,0.7844079916098907,0.9309722320858553,-0.1962622830160746,-0.13579356309017565,0.008679170593048695,-0.42791594147004886,-0.5251768500169266,0.07783311023453433,19,0.4,0,89,-0.6846154526756015,0.7877846139704573,0.925256596725461,0.31527960676878447,0.7878755358203189,0.9249969457791435,-0.6848330318106426,-0.21202239316512214,0.9248637917366167
19.402,2,-0.6875470249070157,-0.22393825045931326,0.9367808015613088,-0.2955639562186552,-0.16399220649286603,-0.0014560582112754712,-1.8622345722852176,-0.892970432422505,-0.23995714529214207,4,0.4,0,85,-0.6846154526756015,0.7877846139704573,0.925256596725461,0.31527960676878447,0.7878755358203189,0.9249969457791435,-0.6848330318106426,-0.21202239316512214,0.9248637917366167
19.602,0,-0.7260479704663054,0.7704526635041288,0.9304489139609826,-0.14127880627904205,-0.09567581304030548,-0.04405121087469171,0.5546970607005745,-0.057946360325513216,-0.31957631015971033,9,0.4,0,92,-0.7216040174438989,0.7694370533396809,0.9240847537157906,0.27826752567639146,0.7695376876822992,0.9238779576134432,-0.7218452933250967,-0.2303647498224439,0.9237681393877584
19.602,1,0.2688855573941167,0.7653190545177871,0.9325551561272369,-0.19799632427426425,-0.09544468546051821,0.007914620206908057,-0.00867020629094831,0.20174438814828793,-0.0038227519307032025,27,0.4,0,90,-0.7216040174438989,0.7694370533396809,0.9240847537157906,0.27826752567639146,0.7695376876822992,0.9238779576134432,-0.7218452933250967,-0.2303647498224439,0.9237681393877584
19.602,2,-0.6998031028331106,-0.2538520523003285,0.9461161714907506,-0.06128038963047499,-0.14956900920507663,0.046676849647209084,1.1714178329409053,0.07211598643894726,0.24066453929242365,2,0.4,0,86,-0.7216040174438989,0.7694370533396809,0.9240847537157906,0.27826752567639146,0.7695376876822992,0.9238779576134432,-0.7218452933250967,-0.2303647498224439,0.9237681393877584
19.802,0,-0.7673805893998178,0.7690034151932622,0.9349961062023924,-0.20666309466756255,-0.00724624155433287,0.02273596120704832,-0.3269214419426037,0.4421478574298646,0.3339358604087013,8,0.4,0,93,-0.7551097247207165,0.7548471565584596,0.9213372573162224,0.24474288054567345,0.7549511580610337,0.9211927770119641,-0.7553661785701439,-0.24495429833170793,0.9211029062202432
19.802,1,0.2364180646470772,0.7544487547521677,0.9308995098395338,-0.16233746373519795,-0.054351498828097616,-0.0082782314385155,0.17829430269533217,0.20546593316210368,-0.08096425822711807,21,0.4,0,91,-0.7551097247207165,0.7548471565584596,0.9213372573162224,0.24474288054567345,0.7549511580610337,0.9211927770119641,-0.7553661785701439,-0.24495429833170793,0.9211029062202432
19.802,2,-0.7396329438622087,-0.24463132529451537,0.9338279472225351,-0.19914920514549087,0.046103635029065726,-0.06144112134107726,-0.6893440775750818,0.9783632211707153,-0.5405898549414336,2,0.4,0,87,-0.7551097247207165,0.7548471565584596,0.9213372573162224,0.24474288054567345,0.7549511580610337,0.9211927770119641,-0.7553661785701439,-0.24495429833170793,0.9211029062202432
20.002000000000002,0,-0.7935123201681262,0.7391273848863362,0.9189704299260752,-0.13065865384154032,-0.1493801515346278,-0.08012838138158421,0.38002220413010573,-0.7106695499014646,-0.5143217129431553,4,0.4,0,94,-0.7851987429299977,0.7434451978793737,0.9172192617809785,0.21459137016333557,0.7435676459012184,0.9174345979069343,-0.7855179198555037,-0.25634533035170914,0.91737875687008
20.002000000000002,1,0.21867394202047924,0.7540161492656142,0.9271178436436556,-0.08872061313298858,-0.002163027432767164,-0.018908330979391107,0.3680842530110416,0.2609423569766485,-0.05315049770437728,21,0.4,0,92,-0.7851987429299977,0.7434451978793737,0.9172192617809785,0.21459137016333557,0.7435676459012184,0.9174345979069343,-0.7855179198555037,-0.25634533035170914,0.91737875687008
20.002000000000002,2,-0.8029588514287305,-0.24447209451930263,0.9320112558674123,-0.31662953783260445,0.0007961538760636764,-0.009083456775614156,-0.5874016634355596,-0.22653740576500705,0.2617883228273118,3,0.4,0,88,-0.7851987429299977,0.7434451978793737,0.9172192617809785,0.21459137016333557,0.7435676459012184,0.9174345979069343,-0.7855179198555037,-0.25634533035170914,0.91737875687008
20.202,0,-0.8092331792369807,0.725005659002008,0.9185978108888415,-0.07860429534427255,-0.0706086294216415,-0.0018630951861689571,0.2602717924863398,0.3938576105649329,0.3913264309770777,7,0.4,0,95,-0.812355909212875,0.734669445860399,0.9126981643547266,0.18754368071906807,0.7348082250758098,0.9126300882724282,-0.8126467832170587,-0.2650985836426573,0.9130689918498628
20.202,1,0.18853013623314602,0.7445140489198006,0.9342920819040453,-0.15071902893666664,-0.04751050172906851,0.03587119130194867,-0.3099920790183914,-0.22673737148150752,0.2738976114066999,20,0.4,0,93,-0.812355909212875,0.734669445860399,0.9126981643547266,0.18754368071906807,0.7348082250758098,0.9126300882724282,-0.8126467832170587,-0.2650985836426573,0.9130689918498628
20.202,2,-0.8478018181987346,-0.27810461983291757,0.9166499921669804,-0.2242148338500213,-0.1681626265680753,-0.07680631850215947,0.46207351991291734,-0.844793902220698,-0.33861430863272773,3,0.4,0,89,-0.812355909212875,0.734669445860399,0.9126981643547266,0.18754368071906807,0.7348082250758098,0.9126300882724282,-0.8126467832170587,-0.2650985836426573,0.9130689918498628
20.402,0,-0.8321202045953882,0.7315961405850777,0.9295610697481504,-0.11443512679203778,0.03295240791534882,0.054816294296545415,-0.1791541572388268,0.5178051866849535,0.28339694741357285,8,0.4,0,96,-0.8367240025652066,0.7280610299520344,0.9076675870872074,0.16317813269451462,0.7281996670242888,0.9075491218023803,-0.8369154604950276,-0.2716895130012152,0.9079030696510049
20.402,1,0.1622575340321868,0.7380761715175453,0.9246880985953636,-0.1313630110047966,-0.03218938701127616,-0.04801991654340882,0.09678008965935049,0.07660557358896203,-0.41945553922678896,14,0.4,0,94,-0.8367240025652066,0.7280610299520344,0.9076675870872074,0.16317813269451462,0.7281996670242888,0.9075491218023803,-0.8369154604950276,-0.2716895130012152,0.9079030696510049
20.402,2,-0.8084086797994727,-0.2820016591234673,0.9213087590260858,0.1969656919963099,-0.01948519645274878,0.023293834295526422,2.1059026292316636,0.7433871505766353,0.5005007639884312,2,0.4,0,90,-0.8367240025652066,0.7280610299520344,0.9076675870872074,0.16317813269451462,0.7281996670242888,0.9075491218023803,-0.8369154604950276,-0.2716895130012152,0.9079030696510049
20.603,0,-0.8430774218221935,0.740766546049606,0.9075137653540868,-0.05451351854131984,0.04562390778372276,-0.10968808156250605,0.29811745398367057,0.06304228790235775,-0.818429730642045,4,0.4,0,97,-0.8585733736147713,0.7232636842617,0.9025332079821249,0.14135304221359232,0.7234045671294521,0.9023327345353729,-0.8586928081165487,-0.2764920838034911,0.902525034600648
20.603,1,0.137560714252646,0.7306208451409888,0.9195584841917404,-0.12286975014696885,-0.0370911760027688,-0.025520469669767076,0.042255029143421566,-0.02438700990792353,0.11193754663503327,15,0.4,0,95,-0.8585733736147713,0.7232636842617,0.9025332079821249,0.14135304221359232,0.7234045671294521,0.9023327345353729,-0.8586928081165487,-0.2764920838034911,0.902525034600648
20.603,2,-0.8020981816438135,-0.26677749893680147,0.9193350247424419,0.03139551321223477,0.07574209048092437,-0.009819573550466542,-0.8237322327565906,0.47376759668493984,-0.16474332261688002,2,0.4,0,91,-0.8585733736147713,0.7232636842617,0.9025332079821249,0.14135304221359232,0.7234045671294521,0.9023327345353729,-0.8586928081165487,-0.2764920838034911,0.902525034600648
20.804000000000002,0,-0.867463832298724,0.7332597789125521,0.9124689046419124,-0.12132542525637065,-0.037347100184347636,0.024652434267789514,-0.33239754584602305,-0.41279108441825957,0.6683607752751005,6,0.4,0,98,-0.8774325441448859,0.7224964343641395,0.8980560689995368,0.12252341560777026,0.7226244550015177,0.8976434074429523,-0.877501835797848,-0.27727883113078206,0.8977686069428149
20.804000000000002,1,0.1146429336054145,0.71620879459632,0.9061784305471583,-0.11401880919020613,-0.071701744003327,-0.0665674310675728,0.04403453212319753,-0.1721918805997916,-0.20421373829754041,21,0.4,0,96,-0.8774325441448859,0.7224964343641395,0.8980560689995368,0.12252341560777026,0.7226244550015177,0.8976434074429523,-0.877501835797848,-0.27727883113078206,0.8977686069428149
20.804000000000002,2,-0.8821309322670843,-0.285118984751356,0.8920580552417398,-0.39817288867298783,-0.0912511732067387,-0.13570631592389112,-2.137156228284684,-0.8308122571525505,-0.6263022008628073,3,0.4,0,92,-0.8774325441448859,0.7224964343641395,0.8980560689995368,0.12252341560777026,0.7226244550015177,0.8976434074429523,-0.877501835797848,-0.27727883113078206,0.8977686069428149
21.002000000000002,0,-0.9123292858205512,0.6920407044778678,0.9167632790748597,-0.2265931996051871,-0.2081771436095163,0.02168875976235995,-0.5316554260041224,-0.8627779970968097,-0.014968053057725032,7,0.4,0,99,-0.910916150226068,0.696380425898058,0.9075009523533566,0.08900083455020888,0.6964923089275143,0.9070938459201863,-0.9109162904199986,-0.30330657761874197,0.9070552613102041
21.002000000000002,1,0.07951729827370607,0.6950849707331616,0.9310089340217322,-0.1774021986449917,-0.10668597910686077,0.12540658320491863,-0.3201181285595225,-0.176688056078453,0.9695657286489447,17,0.4,0,97,-0.910916150226068,0.696380425898058,0.9075009523533566,0.08900083455020888,0.6964923089275143,0.9070938459201863,-0.9109162904199986,-0.30330657761874197,0.9070552613102041
21.002000000000002,2,-0.957248385086475,-0.29790551607920857,0.8638076172811218,-0.4445094596339444,-0.07353568786555963,-0.16426186255511865,-0.657862472611487,-0.09047724056362166,-0.21800891874785766,0,0.4,1,92,-0.910916150226068,0.696380425898058,0.9075009523533566,0.08900083455020888,0.6964923089275143,0.9070938459201863,-0.9109162904199986,-0.30330657761874197,0.9070552613102041
21.202,0,-0.9559475859291118,0.6802584931508907,0.9198486552209583,-0.2180915005428038,-0.0589110566348857,0.015426880730492809,0.042508495311916625,0.7463304348731558,-0.031309395159335826,8,0.4,0,100,-0.9467487509048478,0.6704366178251207,0.9116766045159462,0.05313346126957957,0.6705296964198245,0.9113370606999351,-0.9467504048537572,-0.3292578364706577,0.9111101748744976
21.202,1,0.05237886591443869,0.668263299880596,0.9355303762782861,-0.1356921617963374,-0.13410835426282844,0.022607211282769737,0.20855018424327235,-0.13711187577983883,-0.5139968596107463,14,0.4,0,98,-0.9467487509048478,0.6704366178251207,0.9116766045159462,0.05313346126957957,0.6705296964198245,0.9113370606999351,-0.9467504048537572,-0.3292578364706577,0.9111101748744976
21.202,2,-0.969617526262843,-0.2936464579691007,0.9146931978151727,-0.25069841625773837,0.008143456754397012,0.20995944219214183,0.9690552168810336,0.4083957230997846,1.871106523736309,1,0.4,0,93,-0.9467487509048478,0.6704366178251207,0.9116766045159462,0.05313346126957957,0.6705296964198245,0.9113370606999351,-0.9467504048537572,-0.3292578364706577,0.9111101748744976
21.402,0,-0.961421397280249,0.6505138991377784,0.9500779784437845,-0.027369056755686225,-0.14872297006556232,0.1511466161141314,0.9536122189355912,-0.44905956715338463,0.6785986769181954,4,0.4,0,101,-0.9784941915996905,0.6497419544001297,0.9127757033874853,0.021366550540075243,0.6498259344857868,0.9125038688014467,-0.9786354953412103,-0.35004004510902165,0.9126586642149633
21.402,1,0.017106252805769773,0.6468860947023887,0.933213323064661,-0.17636306554334522,-0.10688602589103684,-0.011585266068125696,-0.20335451873503985,0.1361116418589585,-0.17096238675447778,16,0.4,0,99,-0.9784941915996905,0.6497419544001297,0.9127757033874853,0.021366550540075243,0.6498259344857868,0.9125038688014467,-0.9786354953412103,-0.35004004510902165,0.9126586642149633
21.402,2,-0.9715999532719859,-0.35023596263068235,0.9381555107346866,-0.009912135045714345,-0.2829475233079092,0.11731156459756961,1.2039314060601245,-1.4554549003115362,-0.46323938797286274,2,0.4,0,94,-0.9784941915996905,0.6497419544001297,0.9127757033874853,0.021366550540075243,0.6498259344857868,0.9125038688014467,-0.9786354953412103,-0.35004004510902165,0.9126586642149633
21.603,0,-1.0193055403310745,0.6351713675964225,0.9156722991708289,-0.28798081119813584,-0.07633100269331272,-0.17117253369629565,-1.2965758927485023,0.3601590416529821,-1.6035778597533645,5,0.4,0,102,-1.0067807330570975,0.6331177938477395,0.9120253710754291,-0.006929194926055496,0.6331988078037152,0.9118083288272462,-1.0069150681225372,-0.3666799926745508,0.9120994072436326
21.603,1,-0.019107596175670816,0.6314518177486573,0.9291438209931481,-0.18016840289273878,-0.0767874475310015,-0.02024627896275074,-0.018932026613898267,0.14974417094544906,-0.04308961639116926,16,0.4,0,100,-1.0067807330570975,0.6331177938477395,0.9120253710754291,-0.006929194926055496,0.6331988078037152,0.9118083288272462,-1.0069150681225372,-0.3666799926745508,0.9120994072436326
21.603,2,-1.0198612737674178,-0.3761004941163484,0.9324066673608538,-0.2401060721165758,-0.12867926112271624,-0.02860121081508849,-1.1452434680142332,0.767503791966132,-0.725934206033123,4,0.4,0,95,-1.0067807330570975,0.6331177938477395,0.9120253710754291,-0.006929194926055496,0.6331988078037152,0.9118083288272462,-1.0069150681225372,-0.3666799926745508,0.9120994072436326
21.801000000000002,0,-1.0211328695896154,0.602295480730621,0.9278130609818415,-0.009228935649196444,-0.16603983265556255,0.06131697884349753,1.4078377552976709,-0.4530748987992406,1.1741894572716802,4,0.4,0,103,-1.03200956630156,0.6197390054422586,0.9096838414516722,-0.03215882823113263,0.6198200586298657,0.9095093134509384,-1.0321150336271674,-0.38006534053033975,0.9097783061692617
21.801000000000002,1,-0.035293212503098026,0.6308990705739517,0.9266090659922332,-0.08174553700720796,-0.0027916523975033223,-0.012801792933913505,0.49708518124005363,0.3737161370378688,0.03759841428705667,14,0.4,0,101,-1.03200956630156,0.6197390054422586,0.9096838414516722,-0.03215882823113263,0.6198200586298657,0.9095093134509384,-1.0321150336271674,-0.38006534053033975,0.9097783061692617
21.801000000000002,2,-1.0121890775367082,-0.3757223387608679,0.9142227538380401,0.03874846581166448,0.0019098755327296402,-0.09183794708491738,1.4083562521628268,0.6595410942194223,-0.31937745590822614,3,0.4,0,96,-1.03200956630156,0.6197390054422586,0.9096838414516722,-0.03215882823113263,0.6198200586298657,0.9095093134509384,-1.0321150336271674,-0.38006534053033975,0.9097783061692617
22.002000000000002,0,-1.0490544113747322,0.6093669802251153,0.927697350969473,-0.13891314320953624,0.03518158952484698,-0.0005756717033258006,-0.6451950624892511,1.001101602887607,-0.30792363456130933,5,0.4,0,104,-1.054565793160128,0.6090116589354072,0.9063187659667536,-0.05471007021941279,0.6090939656312083,0.9061771440445608,-1.0546463142010503,-0.3908028616323653,0.906395436777264
22.002000000000002,1,-0.0687672830564513,0.6026052863491971,0.9235368510140869,-0.16653766444454324,-0.14076509564554487,-0.015284651632568912,-0.42185138028524904,-0.686435041035031,-0.012352530839081596,16,0.4,0,102,-1.054565793160128,0.6090116589354072,0.9063187659667536,-0.05471007021941279,0.6090939656312083,0.9061771440445608,-1.0546463142010503,-0.3908028616323653,0.906395436777264
22.002000000000002,2,-1.0407563310261976,-0.3919136160054444,0.9401679738753184,-0.14212563925119073,-0.08055361813222106,0.12908069670287697,-0.8998711694669391,-0.4102661376365696,1.0990977302875313,2,0.4,0,97,-1.054565793160128,0.6090116589354072,0.9063187659667536,-0.05471007021941279,0.6090939656312083,0.9061771440445608,-1.0546463142010503,-0.3908028616323653,0.906395436777264
22.202,0,-1.0946326971271074,0.6102751815996079,0.9103335505978236,-0.22789142876187687,0.004541006872463299,-0.0868190018582474,-0.44489142776170476,-0.15320291326191893,-0.4312166507746095,4,0.4,0,105,-1.0747075997348885,0.6004881066282988,0.9023221817269939,-0.07484302322553302,0.6005717713360743,0.9022057031493881,-1.0747683732756492,-0.3993388894293962,0.9023784313538619
22.202,1,-0.07874172253925338,0.5975294991687496,0.918683110444096,-0.04987219741401057,-0.025378935902237255,-0.024268702849954225,0.5833273351526654,0.5769307987165402,-0.04492025608692672,13,0.4,0,103,-1.0747075997348885,0.6004881066282988,0.9023221817269939,-0.07484302322553302,0.6005717713360743,0.9022057031493881,-1.0747683732756492,-0.3993388894293962,0.9023784313538619
22.202,2,-1.0464316332569268,-0.3448405591873631,0.9051706695285282,-0.028376511153646134,0.2353652840904072,-0.17498652173395168,0.568745640487725,1.5795945111131469,-1.5203360921841487,1,0.4,0,98,-1.0747075997348885,0.6004881066282988,0.9023221817269939,-0.07484302322553302,0.6005717713360743,0.9022057031493881,-1.0747683732756492,-0.3993388894293962,0.9023784313538619
22.402,0,-1.1098488283428207,0.5948825851527266,0.903207363662008,-0.07608065607856677,-0.07696298223440673,-0.0356309346790777,0.7590538634165532,-0.40751994553435156,0.2559403358958494,6,0.4,0,106,-1.0975182667189864,0.5883595326001846,0.9097056727428651,-0.09764358956910599,0.588444266716209,0.9096084163083261,-1.0975653267916547,-0.4114826856334495,0.9097520631228644
22.402,1,-0.09008949080804762,0.5786292084030253,0.9253056447308345,-0.056738841343971426,-0.09450145382862185,0.03311267143369279,-0.03433321964980441,-0.34561258963192426,0.2869068714182361,15,0.4,0,104,-1.0975182667189864,0.5883595326001846,0.9097056727428651,-0.09764358956910599,0.588444266716209,0.9096084163083261,-1.0975653267916547,-0.4114826856334495,0.9097520631228644
22.402,2,-1.0565401732342992,-0.40506762358186554,0.9421867373308392,-0.050542699886862066,-0.3011353219725132,0.18508033901155557,-0.11083094366608005,-2.6825030303146113,1.8003343037275428,2,0.4,0,99,-1.0975182667189864,0.5883595326001846,0.9097056727428651,-0.09764358956910599,0.588444266716209,0.9096084163083261,-1.0975653267916547,-0.4114826856334495,0.9097520631228644
